EDA_mean,EDA_std,EDA_sum,EDA_min,EDA_max,EDA_median,EDA_range,EDA_kurtosis,EDA_skewness,EDA_slope,EDA_auc,BVP_mean,BVP_std,BVP_sum,BVP_min,BVP_max,BVP_median,BVP_range,BVP_kurtosis,BVP_skewness,TEMP_mean,TEMP_std,TEMP_sum,TEMP_min,TEMP_max,TEMP_median,TEMP_range,TEMP_kurtosis,TEMP_skewness,TEMP_slope,ACC_X_mean,ACC_X_std,ACC_X_sum,ACC_X_min,ACC_X_max,ACC_X_median,ACC_X_range,ACC_X_kurtosis,ACC_X_skewness,ACC_X_auc,ACC_X_mean_peaks,ACC_Y_mean,ACC_Y_std,ACC_Y_sum,ACC_Y_min,ACC_Y_max,ACC_Y_median,ACC_Y_range,ACC_Y_kurtosis,ACC_Y_skewness,ACC_Y_auc,ACC_Y_mean_peaks,ACC_Z_mean,ACC_Z_std,ACC_Z_sum,ACC_Z_min,ACC_Z_max,ACC_Z_median,ACC_Z_range,ACC_Z_kurtosis,ACC_Z_skewness,ACC_Z_auc,ACC_Z_mean_peaks,label
0.9507815,0.609873655114352,60.850016,0.0,2.109136,1.193533,2.109136,-0.9543384921097311,-0.42889135549615176,0.031072779853479848,59.795448000000015,17.225625,24.435172533584286,1102.44,-0.05,93.78,6.4399999999999995,93.83,1.6827195586550108,1.6445700851190876,376.76828125000003,43.29375,24113.170000000002,35.83,382.18,382.18,346.35,59.015873015873005,-7.81126577552403,-0.4995432692307678,-28.40625,0.49501483062599516,-1818.0,-29.0,-28.0,-28.0,1.0,-1.854251012145749,-0.38177085778546666,-1790.0,29.2,-24.03125,0.30699516567208623,-1538.0,-25.0,-23.0,-24.0,2.0,7.502049861495845,-0.7970231829882565,-1514.0,13.0,49.90625,0.2937848256965009,3194.0,49.0,50.0,50.0,1.0,5.7701149425287355,-2.7874925905782666,3144.0,22.0,0.0
0.9837367499999999,0.6146476951999955,62.959151999999996,0.0,2.109136,1.193533,2.109136,-0.833911525033781,-0.41495332054806017,0.031328630036630035,61.904584000000014,18.835625,26.582421323361395,1205.48,-0.05,103.04,6.915,103.09,1.669808982493338,1.6365950529363256,371.3565625,60.73873921941652,23766.82,35.83,382.18,382.18,346.35,27.032258064516107,-5.388159060803244,-0.9832280219780196,-28.40625,0.49501483062599516,-1818.0,-29.0,-28.0,-28.0,1.0,-1.854251012145749,-0.38177085778546666,-1789.5,28.2,-24.03125,0.30699516567208623,-1538.0,-25.0,-23.0,-24.0,2.0,7.502049861495845,-0.7970231829882565,-1514.0,12.0,49.90625,0.2937848256965009,3194.0,49.0,50.0,50.0,1.0,5.7701149425287355,-2.7874925905782666,3144.0,21.0,0.0
1.016692,0.6176011079098129,65.068288,0.0,2.109136,1.193533,2.109136,-0.7304206453141999,-0.4090767162000963,0.03148790805860806,64.01372,20.59609375,28.941413158484835,1318.15,-0.05,112.67,7.415,112.72,1.6792629596746345,1.6336492886356957,365.94484375,73.78710563984305,23420.47,35.83,382.18,382.18,346.35,16.38251366120218,-4.287483371536521,-1.451054258241756,-28.40625,0.49501483062599516,-1818.0,-29.0,-28.0,-28.0,1.0,-1.854251012145749,-0.38177085778546666,-1789.0,32.5,-24.03125,0.30699516567208623,-1538.0,-25.0,-23.0,-24.0,2.0,7.502049861495845,-0.7970231829882565,-1514.0,11.0,49.90625,0.2937848256965009,3194.0,49.0,50.0,50.0,1.0,5.7701149425287355,-2.7874925905782666,3144.0,20.0,0.0
1.04964725,0.6187599639867024,67.177424,0.0,2.109136,1.193533,2.109136,-0.6377166863737509,-0.4089637638396058,0.03155061391941392,66.12285600000001,22.49859375,31.458571490347328,1439.91,-0.05,121.76,7.995,121.81,1.654812176452448,1.6254741192449853,360.533125,84.50074756643113,23074.12,35.83,382.18,382.18,346.35,11.066666666666654,-3.6147844564602525,-1.9030219780219748,-28.40625,0.49501483062599516,-1818.0,-29.0,-28.0,-28.0,1.0,-1.854251012145749,-0.38177085778546666,-1789.0,31.5,-24.03125,0.30699516567208623,-1538.0,-25.0,-23.0,-24.0,2.0,7.502049861495845,-0.7970231829882565,-1514.0,10.0,49.90625,0.2937848256965009,3194.0,49.0,50.0,50.0,1.0,5.7701149425287355,-2.7874925905782666,3144.0,19.0,0.0
1.0826025,0.6181343566239115,69.28656,0.0,2.109136,1.193533,2.109136,-0.5516720298783166,-0.4126725782849254,0.031516747619047616,68.23199200000002,24.52546875,34.05754825919769,1569.63,-0.05,129.72,8.725000000000001,129.77,1.562846296408778,1.6046784516053105,355.12140625,93.68411062557706,22727.77,35.83,382.18,382.18,346.35,7.884745762711857,-3.144001552593741,-2.339131181318679,-28.390625,0.49174737029340243,-1817.0,-29.0,-28.0,-28.0,1.0,-1.798974358974359,-0.448358830654244,-1788.5,30.5,-24.03125,0.30699516567208623,-1538.0,-25.0,-23.0,-24.0,2.0,7.502049861495845,-0.7970231829882565,-1514.0,9.0,49.90625,0.2937848256965009,3194.0,49.0,50.0,50.0,1.0,5.7701149425287355,-2.7874925905782666,3144.0,18.0,0.0
1.11555775,0.6157188464790758,71.395696,0.0,2.109136,1.193533,2.109136,-0.4697330903282819,-0.41844082280286443,0.03138630915750916,70.34112800000003,26.6596875,36.67536541702376,1706.22,-0.05,136.59,9.615,136.64000000000001,1.4064757164710446,1.5700463135309857,349.7096875,101.75237437998335,22381.42,35.83,382.18,382.18,346.35,5.770114942528732,-2.7874925905782657,-2.759381868131864,-28.375,0.48795003647426743,-1816.0,-29.0,-28.0,-28.0,1.0,-1.7333333333333334,-0.5163977794943223,-1787.5,29.5,-24.03125,0.30699516567208623,-1538.0,-25.0,-23.0,-24.0,2.0,7.502049861495845,-0.7970231829882565,-1514.0,8.0,49.90625,0.2937848256965009,3194.0,49.0,50.0,50.0,1.0,5.7701149425287355,-2.7874925905782666,3144.0,17.0,0.0
1.148513,0.6114922225546497,73.504832,0.0,2.109136,1.193533,2.109136,-0.39073450393489173,-0.42452929134923284,0.031159298534798527,72.45026400000003,28.8940625,39.28831296473646,1849.22,-0.05,143.0,10.565,143.05,1.2130193907688556,1.5254215665475936,344.29796875000005,108.95354819400103,22035.070000000003,35.83,382.18,382.18,346.35,4.265664160401004,-2.503130871608794,-3.1637740384615345,-28.359375,0.48361034754642024,-1815.0,-29.0,-28.0,-28.0,1.0,-1.6564156945917285,-0.5861606481232525,-1786.5,28.5,-24.03125,0.30699516567208623,-1538.0,-25.0,-23.0,-24.0,2.0,7.502049861495845,-0.7970231829882565,-1514.0,7.0,49.90625,0.2937848256965009,3194.0,49.0,50.0,50.0,1.0,5.7701149425287355,-2.7874925905782666,3144.0,16.0,0.0
1.18146825,0.6054165539896988,75.613968,0.0,2.109136,1.193533,2.109136,-0.31495057747727095,-0.4290607758583318,0.03083571575091575,74.55940000000004,31.2425,41.93656801060307,1999.52,-0.05,150.3,11.46,150.35000000000002,1.021591203636203,1.4781938889946333,338.88625,115.45000000000003,21688.72,35.83,382.18,382.18,346.35,3.142857142857139,-2.2677868380553616,-3.552307692307688,-28.34375,0.47871355387817055,-1814.0,-29.0,-28.0,-28.0,1.0,-1.567099567099567,-0.657951694959769,-1786.0,32.6,-24.03125,0.30699516567208623,-1538.0,-25.0,-23.0,-24.0,2.0,7.502049861495845,-0.7970231829882565,-1513.5,6.0,49.90625,0.2937848256965009,3194.0,49.0,50.0,50.0,1.0,5.7701149425287355,-2.7874925905782666,3144.5,15.0,0.0
1.2144234999999999,0.5974354314144192,77.72310399999999,0.0,2.109136,1.193533,2.109136,-0.2444202912102793,-0.4298272646570311,0.030415560805860803,76.66853600000005,33.6990625,44.59777689379873,2156.74,-0.05,157.22,12.22,157.27,0.8312869453771117,1.4284213407348871,333.47453125000004,121.3549595186649,21342.370000000003,35.83,382.18,382.18,346.35,2.274747474747471,-2.067546244887274,-3.924982829670327,-28.359375,0.48361034754642024,-1815.0,-29.0,-28.0,-28.0,1.0,-1.6564156945917285,-0.5861606481232525,-1786.5,36.333333333333336,-24.015625,0.2812775559693015,-1537.0,-25.0,-23.0,-24.0,2.0,9.73821011979049,-0.5507657364825927,-1512.5,5.0,49.921875,0.27048970875004175,3195.0,49.0,50.0,50.0,1.0,7.884745762711864,-3.144001552593743,3145.5,14.0,0.0
1.24737875,0.5874712000077447,79.83224,0.0,2.109136,1.193533,2.109136,-0.18366137482738054,-0.42402866137243533,0.029898833699633694,78.77767200000005,36.29328125,47.350385830200466,2322.77,-0.05,166.03,12.850000000000001,166.08,0.6709354344722742,1.3826594054972408,328.0628125,126.75112134964672,20996.02,35.83,382.18,382.18,346.35,1.585185185185182,-1.8934585248125138,-4.281799450549449,-28.375,0.48795003647426743,-1816.0,-29.0,-28.0,-28.0,1.0,-1.7333333333333334,-0.5163977794943223,-1787.5,35.333333333333336,-24.0,0.2519763153394851,-1536.0,-25.0,-23.0,-24.0,2.0,13.0,0.0,-1512.0,4.0,49.9375,0.2439750182371335,3196.0,49.0,50.0,50.0,1.0,11.066666666666666,-3.6147844564602556,3146.0,23.0,0.0
1.2803339999999999,0.5754208479299137,81.94137599999999,0.0,2.109136,1.193533,2.109136,-0.14102180399155495,-0.4078843573182441,0.029285534432234427,80.88680800000004,39.06390625,50.28960025713883,2500.09,-0.05,177.32,13.45,177.37,0.5604084409466981,1.3461925801901176,322.65109375000003,131.70104096341922,20649.670000000002,35.83,382.18,382.18,346.35,1.0257289879931362,-1.739462269781422,-4.622757554945053,-28.375,0.48795003647426743,-1816.0,-29.0,-28.0,-28.0,1.0,-1.7333333333333334,-0.5163977794943223,-1788.0,34.333333333333336,-24.0,0.2519763153394851,-1536.0,-25.0,-23.0,-24.0,2.0,13.0,0.0,-1512.0,3.0,49.9375,0.2439750182371335,3196.0,49.0,50.0,50.0,1.0,11.066666666666666,-3.6147844564602556,3146.0,22.0,0.0
1.31328925,0.5611499967841549,84.050512,0.0,2.109136,1.193533,2.109136,-0.13117333141887766,-0.3760145254114002,0.028575663003663,82.99594400000005,42.05078125,53.5071350324418,2691.25,-0.05,191.17,14.205,191.22,0.5100430667577451,1.3224273330256426,317.239375,136.25336136089584,20303.32,35.83,382.18,382.18,346.35,0.5641025641025639,-1.6012815380508714,-4.947857142857143,-28.375,0.48795003647426743,-1816.0,-29.0,-28.0,-28.0,1.0,-1.7333333333333334,-0.5163977794943223,-1788.0,33.333333333333336,-24.0,0.2519763153394851,-1536.0,-25.0,-23.0,-24.0,2.0,13.0,0.0,-1512.0,2.0,49.9375,0.2439750182371335,3196.0,49.0,50.0,50.0,1.0,11.066666666666666,-3.6147844564602556,3146.0,21.0,0.0
1.3462445,0.5444840776496298,86.159648,0.0,2.109136,1.193533,2.109136,-0.17979014428443296,-0.32039660375742907,0.027769219413919414,85.10508000000004,45.27484375,57.03401983923996,2897.59,-0.05,206.35,15.305,206.4,0.5068190811003181,1.3097091748335277,311.82765625,140.44675018410643,19956.97,35.83,382.18,382.18,346.35,0.17797888386123573,-1.4757977110231721,-5.257098214285712,-28.375,0.48795003647426743,-1816.0,-29.0,-28.0,-28.0,1.0,-1.7333333333333334,-0.5163977794943223,-1788.0,32.333333333333336,-24.0,0.2519763153394851,-1536.0,-25.0,-23.0,-24.0,2.0,13.0,0.0,-1512.0,1.0,49.9375,0.2439750182371335,3196.0,49.0,50.0,50.0,1.0,11.066666666666666,-3.6147844564602556,3146.0,20.0,0.0
4.1718294062500005,0.008002119375519085,266.99708200000003,4.156246,4.183132,4.170329,0.0268859999999993,-1.0492770492209367,-0.009322915564583187,0.00041208044871795217,262.827393,-0.7278124999999996,5.866062325134107,-46.57999999999998,-10.8,9.52,-1.9449999999999998,20.32,-0.8976803657538759,0.12029195489608124,35.8103125,0.0024999628549976735,2291.86,35.81,35.83,35.81,0.01999999999999602,59.0158730158758,7.811265775524303,-2.8846153845926898e-05,-28.875,0.37796447300921365,-1848.0,-30.0,-28.0,-29.0,2.0,2.4444444444444446,1.3333333333333333,-1819.0,31.0,-23.96875,0.1753680936030515,-1534.0,-24.0,-23.0,-24.0,1.0,27.032258064516128,5.388159060803248,-1510.0,61.0,49.578125,0.49776285231307876,3173.0,49.0,50.0,50.0,1.0,-1.8998998998999,-0.31638599858416633,3123.5,37.25,0.0
4.1727296250000006,0.00813420158428274,267.05469600000004,4.161367,4.192095,4.17417,0.030727999999999867,-0.8687406314460695,0.0919620865115036,0.00041762179487181227,262.877965,-0.8364062499999996,5.966582964877175,-53.52999999999997,-10.8,9.52,-1.9449999999999998,20.32,-0.9659313371748013,0.1211861441993354,35.8096875,0.002499962854913528,2291.82,35.79,35.81,35.81,0.020000000000003126,59.01587301587723,-7.8112657755244355,-2.8846153846099456e-05,-28.90625,0.38704210016686347,-1850.0,-30.0,-28.0,-29.0,2.0,2.9371518793035394,0.9086406235021025,-1821.0,29.0,-23.96875,0.1753680936030515,-1534.0,-24.0,-23.0,-24.0,1.0,27.032258064516128,5.388159060803248,-1510.0,59.0,49.5625,0.49999999999999445,3172.0,49.0,50.0,50.0,1.0,-1.9365079365079365,-0.25197631533948484,3123.0,35.25,0.0
4.17320975,0.008356695872521074,267.085424,4.161367,4.192095,4.17417,0.030727999999999867,-0.731838477720161,0.150200840768109,0.00042864395604397357,262.90869299999997,-0.8828124999999996,6.0081200262625245,-56.49999999999997,-10.8,9.52,-1.9449999999999998,20.32,-0.9945432399465632,0.12310949947433263,35.809375,0.003507335395613582,2291.8,35.79,35.81,35.81,0.020000000000003126,27.032258064520256,-5.3881590608038215,-5.677655677627167e-05,-28.90625,0.38704210016686347,-1850.0,-30.0,-28.0,-29.0,2.0,2.9371518793035394,0.9086406235021025,-1821.0,28.0,-23.96875,0.1753680936030515,-1534.0,-24.0,-23.0,-24.0,1.0,27.032258064516128,5.388159060803248,-1510.0,58.0,49.5625,0.49999999999999445,3172.0,49.0,50.0,50.0,1.0,-1.9365079365079365,-0.25197631533948484,3123.0,34.25,0.0
4.173689875,0.008546059809695306,267.116152,4.161367,4.192095,4.17417,0.030727999999999867,-0.6625095608794105,0.18559617348069607,0.0004382591575091686,262.939421,-0.9304687499999996,6.048502223017024,-59.549999999999976,-10.8,9.52,-1.9449999999999998,20.32,-1.0232264514840572,0.12708615115047908,35.8090625,0.00426081872182913,2291.78,35.79,35.81,35.81,0.020000000000003126,16.382513661206243,-4.287483371537232,-8.379120879119978e-05,-28.90625,0.38704210016686347,-1850.0,-30.0,-28.0,-29.0,2.0,2.9371518793035394,0.9086406235021025,-1821.0,27.0,-23.96875,0.1753680936030515,-1534.0,-24.0,-23.0,-24.0,1.0,27.032258064516128,5.388159060803248,-1510.0,57.0,49.5625,0.49999999999999445,3172.0,49.0,50.0,50.0,1.0,-1.9365079365079365,-0.25197631533948484,3123.0,33.25,0.0
4.17417,0.008704455899651872,267.14688,4.161367,4.192095,4.17417,0.030727999999999867,-0.6347290186381205,0.20532645007260106,0.00044646739926741257,262.970149,-0.9834374999999996,6.0891822420552435,-62.939999999999976,-10.8,9.52,-1.9449999999999998,20.32,-1.0535206438373235,0.13482396040114294,35.80875,0.004879481333588886,2291.76,35.79,35.81,35.81,0.020000000000003126,11.066666666670644,-3.6147844564610816,-0.00010989010989010547,-28.90625,0.38704210016686347,-1850.0,-30.0,-28.0,-29.0,2.0,2.9371518793035394,0.9086406235021025,-1821.0,26.0,-23.96875,0.1753680936030515,-1534.0,-24.0,-23.0,-24.0,1.0,27.032258064516128,5.388159060803248,-1510.0,56.0,49.5625,0.49999999999999445,3172.0,49.0,50.0,50.0,1.0,-1.9365079365079365,-0.25197631533948484,3122.5,36.57142857142857,0.0
4.174650124999999,0.008833550170803117,267.17760799999996,4.161367,4.192095,4.17417,0.030727999999999867,-0.6327310972037585,0.21432877317518173,0.00045326868131868815,263.000877,-1.0418749999999997,6.128707591818077,-66.67999999999998,-10.8,9.52,-1.9449999999999998,20.32,-1.0839464530639726,0.14706952345086532,35.8084375,0.005409777009358349,2291.74,35.79,35.81,35.81,0.020000000000003126,7.884745762715768,-3.1440015525946743,-0.00013507326007320005,-28.90625,0.38704210016686347,-1850.0,-30.0,-28.0,-29.0,2.0,2.9371518793035394,0.9086406235021025,-1821.0,25.0,-23.96875,0.1753680936030515,-1534.0,-24.0,-23.0,-24.0,1.0,27.032258064516128,5.388159060803248,-1510.0,55.0,49.5625,0.49999999999999445,3172.0,49.0,50.0,50.0,1.0,-1.9365079365079365,-0.25197631533948484,3122.0,35.57142857142857,0.0
4.17513025,0.008934612840197585,267.208336,4.161367,4.192095,4.17417,0.030727999999999867,-0.6468992850144248,0.21614780797438007,0.00045866300366299547,263.03160499999996,-1.1007812499999996,6.164084994902451,-70.44999999999997,-10.8,9.52,-1.9449999999999998,20.32,-1.1113936708274934,0.16216672984938557,35.808125,0.005875680709390953,2291.72,35.79,35.81,35.81,0.020000000000003126,5.770114942532558,-2.787492590579295,-0.00015934065934050708,-28.90625,0.38704210016686347,-1850.0,-30.0,-28.0,-29.0,2.0,2.9371518793035394,0.9086406235021025,-1821.0,24.0,-23.96875,0.1753680936030515,-1534.0,-24.0,-23.0,-24.0,1.0,27.032258064516128,5.388159060803248,-1510.0,54.0,49.5625,0.49999999999999445,3172.0,49.0,50.0,50.0,1.0,-1.9365079365079365,-0.25197631533948484,3122.0,34.57142857142857,0.0
4.175610375,0.009008587373243766,267.239064,4.161367,4.192095,4.17417,0.030727999999999867,-0.6714857854729797,0.21345508678762948,0.00046265036630039165,263.06233299999997,-1.1512499999999997,6.192043153327922,-73.67999999999998,-10.8,9.52,-1.9449999999999998,20.32,-1.1330805334120566,0.17653506700146157,35.807812500000004,0.006291513936090646,2291.7000000000003,35.79,35.81,35.81,0.020000000000003126,4.26566416040474,-2.5031308716099145,-0.0001826923076922663,-28.90625,0.38704210016686347,-1850.0,-30.0,-28.0,-29.0,2.0,2.9371518793035394,0.9086406235021025,-1821.0,23.0,-23.96875,0.1753680936030515,-1534.0,-24.0,-23.0,-24.0,1.0,27.032258064516128,5.388159060803248,-1510.0,53.0,49.5625,0.49999999999999445,3172.0,49.0,50.0,50.0,1.0,-1.9365079365079365,-0.25197631533948484,3122.0,33.57142857142857,0.0
4.1760905,0.009056137597868429,267.269792,4.161367,4.192095,4.17417,0.030727999999999867,-0.7033274948720645,0.20838478319640868,0.00046523076923077095,263.093061,-1.1839062499999995,6.209256944318863,-75.76999999999997,-10.8,9.52,-1.9449999999999998,20.32,-1.1465256150572933,0.18643944670344031,35.807500000000005,0.006666652737238223,2291.6800000000003,35.79,35.81,35.81,0.020000000000003126,3.142857142860797,-2.2677868380565718,-0.00020512820512789406,-28.90625,0.38704210016686347,-1850.0,-30.0,-28.0,-29.0,2.0,2.9371518793035394,0.9086406235021025,-1821.5,29.333333333333332,-23.96875,0.1753680936030515,-1534.0,-24.0,-23.0,-24.0,1.0,27.032258064516128,5.388159060803248,-1510.0,52.0,49.5625,0.49999999999999445,3172.0,49.0,50.0,50.0,1.0,-1.9365079365079365,-0.25197631533948484,3122.0,32.57142857142857,0.0
4.176570625,0.009077678766882034,267.30052,4.161367,4.192095,4.17417,0.030727999999999867,-0.7411404364495024,0.20276627732768804,0.0004664042124542462,263.123789,-1.1939062499999997,6.214279413252099,-76.40999999999998,-10.8,9.52,-1.9449999999999998,20.32,-1.1504814255161355,0.18963797678458336,35.807187500000005,0.007007635630611513,2291.6600000000003,35.79,35.81,35.81,0.020000000000003126,2.27474747475104,-2.0675462448885686,-0.00022664835164792885,-28.921875,0.3696711322672285,-1851.0,-30.0,-28.0,-29.0,2.0,3.700310605037533,0.9347573798844768,-1822.5,28.333333333333332,-23.96875,0.1753680936030515,-1534.0,-24.0,-23.0,-24.0,1.0,27.032258064516128,5.388159060803248,-1510.0,51.0,49.546875,0.5017331074496733,3171.0,49.0,50.0,50.0,1.0,-1.9645320197044336,-0.18832944617230335,3121.5,35.125,0.0
4.17705075,0.009073396126638107,267.331248,4.161367,4.192095,4.17417,0.030727999999999867,-0.7851811293612636,0.19830102200149735,0.0004661706959707375,263.154517,-1.1832812499999994,6.209376947677585,-75.72999999999996,-10.8,9.52,-1.9449999999999998,20.32,-1.1466030163722474,0.18599988996123165,35.806875000000005,0.007319237859606228,2291.6400000000003,35.79,35.81,35.81,0.020000000000003126,1.5851851851886574,-1.8934585248138909,-0.00024725274725241587,-28.9375,0.35073618720608424,-1852.0,-30.0,-28.0,-29.0,2.0,4.655567117585848,0.9385825460754044,-1823.0,27.333333333333332,-23.96875,0.1753680936030515,-1534.0,-24.0,-23.0,-24.0,1.0,27.032258064516128,5.388159060803248,-1510.0,50.0,49.53125,0.5029673851018418,3170.0,49.0,50.0,50.0,1.0,-1.9843137254901961,-0.1252448582170299,3121.0,34.125,0.0
4.177530875,0.00904325298883635,267.361976,4.161367,4.192095,4.17417,0.030727999999999867,-0.8371757724305806,0.19671496646143108,0.00046453021978021524,263.18524499999995,-1.1606249999999996,6.200351980534369,-74.27999999999997,-10.8,9.52,-1.9449999999999998,20.32,-1.1394644799249427,0.17752788771499836,35.806562500000005,0.007605071719659014,2291.6200000000003,35.79,35.81,35.81,0.020000000000003126,1.0257289879965183,-1.7394622697828803,-0.00026694139194153297,-28.9375,0.35073618720608424,-1852.0,-30.0,-28.0,-29.0,2.0,4.655567117585848,0.9385825460754044,-1823.0,26.333333333333332,-23.96875,0.1753680936030515,-1534.0,-24.0,-23.0,-24.0,1.0,27.032258064516128,5.388159060803248,-1510.0,49.0,49.546875,0.5017331074496733,3171.0,49.0,50.0,50.0,1.0,-1.9645320197044336,-0.18832944617230335,3121.5,33.125,0.0
4.178011,0.008986989142216618,267.392704,4.161367,4.192095,4.17417,0.030727999999999867,-0.9004894325970478,0.19991085774834683,0.0004614827838827992,263.21597299999996,-1.1373437499999994,6.1927336431639946,-72.78999999999996,-10.8,9.52,-1.9449999999999998,20.32,-1.1335081235777915,0.16805777277898531,35.806250000000006,0.007867946121981804,2291.6000000000004,35.79,35.81,35.81,0.020000000000003126,0.5641025641058448,-1.6012815380524072,-0.0002857142857140724,-28.9375,0.35073618720608424,-1852.0,-30.0,-28.0,-29.0,2.0,4.655567117585848,0.9385825460754044,-1823.0,25.333333333333332,-23.96875,0.1753680936030515,-1534.0,-24.0,-23.0,-24.0,1.0,27.032258064516128,5.388159060803248,-1510.0,48.0,49.5625,0.49999999999999445,3172.0,49.0,50.0,50.0,1.0,-1.9365079365079365,-0.25197631533948484,3122.0,36.42857142857143,0.0
4.178491125,0.008904109441014125,267.423432,4.161367,4.192095,4.17417,0.030727999999999867,-0.9805664896442963,0.2101442104563425,0.00045702838827838904,263.246701,-1.1229687499999996,6.188983474160289,-71.86999999999998,-10.8,9.52,-1.9449999999999998,20.32,-1.1307021313632044,0.16182002831364642,35.8059375,0.008110093945032261,2291.58,35.79,35.81,35.81,0.020000000000003126,0.17797888385920047,-1.4757977110221383,-0.00030357142857132755,-28.9375,0.35073618720608424,-1852.0,-30.0,-28.0,-29.0,2.0,4.655567117585848,0.9385825460754044,-1823.0,24.333333333333332,-23.96875,0.1753680936030515,-1534.0,-24.0,-23.0,-24.0,1.0,27.032258064516128,5.388159060803248,-1510.0,47.0,49.5625,0.49999999999999445,3172.0,49.0,50.0,50.0,1.0,-1.9365079365079365,-0.25197631533948484,3122.0,35.42857142857143,0.0
4.17897125,0.008793861376313062,267.45416,4.161367,4.192095,4.17417,0.030727999999999867,-1.0857421000072338,0.23025229376571935,0.0004511670329670314,263.277429,-1.1206249999999995,6.188493643157869,-71.71999999999997,-10.8,9.52,-1.9449999999999998,20.32,-1.1303701913619388,0.1607625013573818,35.805625,0.008333322189719803,2291.56,35.79,35.81,35.81,0.020000000000003126,-0.14857142856835814,-1.36067210283491,-0.00032051282051281173,-28.9375,0.35073618720608424,-1852.0,-30.0,-28.0,-29.0,2.0,4.655567117585848,0.9385825460754044,-1823.0,23.333333333333332,-23.96875,0.1753680936030515,-1534.0,-24.0,-23.0,-24.0,1.0,27.032258064516128,5.388159060803248,-1510.0,46.0,49.5625,0.49999999999999445,3172.0,49.0,50.0,50.0,1.0,-1.9365079365079365,-0.25197631533948484,3122.0,34.42857142857143,0.0
4.179451375,0.008655199174316036,267.484888,4.161367,4.192095,4.17417,0.030727999999999867,-1.2286284073202458,0.2639791784225938,0.00044389871794878183,263.308157,-1.1256249999999994,6.189336419797933,-72.03999999999996,-10.8,9.52,-1.99,20.32,-1.1308454637375434,0.16307033056182046,35.8053125,0.008539114763234589,2291.54,35.79,35.81,35.81,0.020000000000003126,-0.42721088435499155,-1.2541088930568924,-0.0003365384615381075,-28.921875,0.3696711322672285,-1851.0,-30.0,-28.0,-29.0,2.0,3.700310605037533,0.9347573798844768,-1822.5,22.333333333333332,-23.96875,0.1753680936030515,-1534.0,-24.0,-23.0,-24.0,1.0,27.032258064516128,5.388159060803248,-1510.0,45.0,49.5625,0.49999999999999445,3172.0,49.0,50.0,50.0,1.0,-1.9365079365079365,-0.25197631533948484,3122.0,33.42857142857143,0.0
4.1799314999999995,0.008486730198454978,267.51561599999997,4.170329,4.192095,4.178651,0.021766000000000396,-1.4284632119722005,0.3164672401970482,0.0004352234432234546,263.334404,-1.1282812499999997,6.189675621595369,-72.20999999999998,-10.8,9.52,-2.035,20.32,-1.1309684052807374,0.16432014380565346,35.805,0.008728704970572236,2291.52,35.79,35.81,35.81,0.020000000000003126,-0.6666666666676142,-1.1547005383786362,-0.00035164835164813057,-28.90625,0.38704210016686347,-1850.0,-30.0,-28.0,-29.0,2.0,2.9371518793035394,0.9086406235021025,-1822.0,32.0,-23.96875,0.1753680936030515,-1534.0,-24.0,-23.0,-24.0,1.0,27.032258064516128,5.388159060803248,-1510.0,44.0,49.5625,0.49999999999999445,3172.0,49.0,50.0,50.0,1.0,-1.9365079365079365,-0.25197631533948484,3122.0,32.42857142857143,0.0
4.180371609375,0.00870831132765554,267.543783,4.170329,4.198496,4.183132,0.02816699999999983,-1.3532578883723398,0.31642012904646283,0.0004477097298535126,263.35937049999995,-1.1187499999999995,6.188938032346967,-71.59999999999997,-10.8,9.52,-2.035,20.32,-1.1310874858354452,0.15975296780690887,35.8046875,0.008903127949686052,2291.5,35.79,35.81,35.81,0.020000000000003126,-0.8735919899881779,-1.0613237065153474,-0.0003658424908425372,-28.90625,0.38704210016686347,-1850.0,-30.0,-28.0,-29.0,2.0,2.9371518793035394,0.9086406235021025,-1822.0,31.0,-23.96875,0.1753680936030515,-1534.0,-24.0,-23.0,-24.0,1.0,27.032258064516128,5.388159060803248,-1510.0,43.0,49.5625,0.49999999999999445,3172.0,49.0,50.0,50.0,1.0,-1.9365079365079365,-0.25197631533948484,3122.0,31.428571428571427,0.0
4.18081171875,0.008902316624664217,267.57195,4.170329,4.198496,4.183132,0.02816699999999983,-1.3168601016293098,0.3045472509746249,0.0004589063186813174,263.38753749999995,-1.0917187499999996,6.1884509831147,-69.86999999999998,-10.8,9.52,-1.8599999999999999,20.32,-1.1332038514421934,0.14667359258916163,35.804375,0.009063259425573943,2291.48,35.79,35.81,35.81,0.020000000000003126,-1.0531400966188378,-0.9730672655993118,-0.0003791208791209616,-28.90625,0.38704210016686347,-1850.0,-30.0,-28.0,-29.0,2.0,2.9371518793035394,0.9086406235021025,-1821.5,30.0,-23.96875,0.1753680936030515,-1534.0,-24.0,-23.0,-24.0,1.0,27.032258064516128,5.388159060803248,-1510.0,42.0,49.5625,0.49999999999999445,3172.0,49.0,50.0,50.0,1.0,-1.9365079365079365,-0.25197631533948484,3122.5,30.428571428571427,0.0
4.181251828124999,0.009070515684378973,267.60011699999995,4.170329,4.198496,4.183132,0.02816699999999983,-1.3040378102749834,0.2843438193667364,0.0004688132097069715,263.41570449999995,-1.0492187499999994,6.190058672101912,-67.14999999999996,-10.8,9.52,-1.51,20.32,-1.1388647997195298,0.12617285643140314,35.8040625,0.009209844887055115,2291.46,35.79,35.81,35.81,0.020000000000003126,-1.2093567251465007,-0.8891812384735454,-0.00039148351648354645,-28.90625,0.38704210016686347,-1850.0,-30.0,-28.0,-29.0,2.0,2.9371518793035394,0.9086406235021025,-1821.0,39.333333333333336,-23.96875,0.1753680936030515,-1534.0,-24.0,-23.0,-24.0,1.0,27.032258064516128,5.388159060803248,-1510.0,41.0,49.578125,0.49776285231307876,3173.0,49.0,50.0,50.0,1.0,-1.8998998998999,-0.31638599858416633,3123.5,29.428571428571427,0.0
4.1816919375,0.009214321823322102,267.628284,4.170329,4.198496,4.183132,0.02816699999999983,-1.3051390376738974,0.2582135531709851,0.00047743040293040534,263.4438715,-0.9996874999999995,6.194117272837134,-63.97999999999997,-10.8,9.52,-1.26,20.32,-1.1472278618338059,0.10245738643576886,35.80375,0.009343521904162402,2291.44,35.79,35.81,35.81,0.020000000000003126,-1.3454545454547002,-0.8090398349557469,-0.0004029304029304292,-28.90625,0.38704210016686347,-1850.0,-30.0,-28.0,-29.0,2.0,2.9371518793035394,0.9086406235021025,-1821.0,38.333333333333336,-23.96875,0.1753680936030515,-1534.0,-24.0,-23.0,-24.0,1.0,27.032258064516128,5.388159060803248,-1510.0,40.0,49.59375,0.49501483062598983,3174.0,49.0,50.0,50.0,1.0,-1.854251012145749,-0.38177085778546666,3124.5,28.428571428571427,0.0
4.182132046875,0.009334862448655981,267.656451,4.170329,4.198496,4.183132,0.02816699999999983,-1.3139402397329563,0.22785374885856421,0.00048475789835166047,263.47203849999994,-0.9540624999999996,6.199404405274391,-61.059999999999974,-10.8,9.52,-1.1400000000000001,20.32,-1.156016214884998,0.08067292211097361,35.8034375,0.00946483743151973,2291.42,35.79,35.81,35.81,0.020000000000003126,-1.4640088593577312,-0.7321141582036584,-0.00041346153846160994,-28.90625,0.38704210016686347,-1850.0,-30.0,-28.0,-29.0,2.0,2.9371518793035394,0.9086406235021025,-1821.0,37.333333333333336,-23.96875,0.1753680936030515,-1534.0,-24.0,-23.0,-24.0,1.0,27.032258064516128,5.388159060803248,-1510.0,39.0,49.59375,0.49501483062598983,3174.0,49.0,50.0,50.0,1.0,-1.854251012145749,-0.38177085778546666,3125.0,31.125,0.0
4.18257215625,0.009433029502513925,267.684618,4.170329,4.198496,4.183132,0.02816699999999983,-1.3263885925679066,0.19449538829526442,0.0004907956959707317,263.5002055,-0.9217187499999996,6.2042938420379325,-58.989999999999974,-10.8,9.52,-0.79,20.32,-1.16319356803,0.06523458344324684,35.803125,0.009574261378206595,2291.4,35.79,35.81,35.81,0.020000000000003126,-1.567099567099506,-0.6579516949598389,-0.0004230769230769913,-28.90625,0.38704210016686347,-1850.0,-30.0,-28.0,-29.0,2.0,2.9371518793035394,0.9086406235021025,-1821.0,36.333333333333336,-23.96875,0.1753680936030515,-1534.0,-24.0,-23.0,-24.0,1.0,27.032258064516128,5.388159060803248,-1510.0,38.0,49.59375,0.49501483062598983,3174.0,49.0,50.0,50.0,1.0,-1.854251012145749,-0.38177085778546666,3124.5,33.857142857142854,0.0
4.183012265625,0.009509515899543028,267.712785,4.170329,4.198496,4.183132,0.02816699999999983,-1.3398471568442907,0.15905829889649725,0.0004955437957875622,263.5283725,-0.9067187499999996,6.2072016685895015,-58.02999999999997,-10.8,9.52,-0.79,20.32,-1.1671528633387829,0.05812438439862117,35.8028125,0.009672197349771502,2291.38,35.79,35.81,35.81,0.020000000000003126,-1.6564156945915924,-0.5861606481234262,-0.0004317765567767394,-28.90625,0.38704210016686347,-1850.0,-30.0,-28.0,-29.0,2.0,2.9371518793035394,0.9086406235021025,-1821.0,35.333333333333336,-23.96875,0.1753680936030515,-1534.0,-24.0,-23.0,-24.0,1.0,27.032258064516128,5.388159060803248,-1510.0,37.0,49.578125,0.49776285231307876,3173.0,49.0,50.0,50.0,1.0,-1.8998998998999,-0.31638599858416633,3123.5,32.857142857142854,0.0
4.183452375,0.009564841769753338,267.740952,4.170329,4.198496,4.183132,0.02816699999999983,-1.3526342603181052,0.12225522656134608,0.0004990021978022296,263.5565395,-0.9076562499999996,6.20696734532806,-58.089999999999975,-10.8,9.52,-0.79,20.32,-1.166849837566799,0.05855959648889954,35.8025,0.009758991213707725,2291.36,35.79,35.81,35.81,0.020000000000003126,-1.7333333333331435,-0.5163977794945974,-0.0004395604395604533,-28.90625,0.38704210016686347,-1850.0,-30.0,-28.0,-29.0,2.0,2.9371518793035394,0.9086406235021025,-1821.0,34.333333333333336,-23.96875,0.1753680936030515,-1534.0,-24.0,-23.0,-24.0,1.0,27.032258064516128,5.388159060803248,-1510.0,36.0,49.5625,0.49999999999999445,3172.0,49.0,50.0,50.0,1.0,-1.9365079365079365,-0.25197631533948484,3122.5,31.857142857142858,0.0
4.183892484375,0.009599372995439214,267.769119,4.170329,4.198496,4.183132,0.02816699999999983,-1.3637422298199215,0.08466475388203938,0.0005011709020146611,263.5847065,-0.9198437499999995,6.203208717097437,-58.86999999999997,-10.8,9.52,-0.79,20.32,-1.1621537025141715,0.06404594551505843,35.8021875,0.009834937963561809,2291.34,35.79,35.81,35.81,0.020000000000003126,-1.7989743589741345,-0.44835883065461934,-0.0004464285714287285,-28.90625,0.38704210016686347,-1850.0,-30.0,-28.0,-29.0,2.0,2.9371518793035394,0.9086406235021025,-1821.0,33.333333333333336,-23.96875,0.1753680936030515,-1534.0,-24.0,-23.0,-24.0,1.0,27.032258064516128,5.388159060803248,-1510.0,35.0,49.5625,0.49999999999999445,3172.0,49.0,50.0,50.0,1.0,-1.9365079365079365,-0.25197631533948484,3122.0,30.857142857142858,0.0
4.18433259375,0.009613333663152968,267.797286,4.170329,4.198496,4.183132,0.02816699999999983,-1.3726711304211288,0.04678536084520643,0.0005020499084249123,263.61287350000003,-0.9384374999999996,6.1965848809230994,-60.059999999999974,-10.8,9.52,-0.79,20.32,-1.1540326955133482,0.07217137217817332,35.801875,0.009900287232529217,2291.32,35.79,35.81,35.81,0.020000000000003126,-1.854251012146612,-0.3817708577837714,-0.0004523809523811356,-28.90625,0.38704210016686347,-1850.0,-30.0,-28.0,-29.0,2.0,2.9371518793035394,0.9086406235021025,-1821.0,32.333333333333336,-23.96875,0.1753680936030515,-1534.0,-24.0,-23.0,-24.0,1.0,27.032258064516128,5.388159060803248,-1510.0,34.0,49.5625,0.49999999999999445,3172.0,49.0,50.0,50.0,1.0,-1.9365079365079365,-0.25197631533948484,3122.0,29.857142857142858,0.0
4.184772703125,0.009606813453015804,267.825453,4.170329,4.198496,4.183132,0.02816699999999983,-1.3793418735163414,0.00907869549746826,0.0005016392170329763,263.64104050000003,-0.9614062499999996,6.1877110333562015,-61.52999999999997,-10.8,9.52,-0.79,20.32,-1.1431914448696192,0.08201732542503626,35.8015625,0.009955247718044982,2291.3,35.79,35.81,35.81,0.020000000000003126,-1.8998998998996581,-0.31638599858473954,-0.00045741758241771486,-28.90625,0.38704210016686347,-1850.0,-30.0,-28.0,-29.0,2.0,2.9371518793035394,0.9086406235021025,-1821.0,31.333333333333332,-23.96875,0.1753680936030515,-1534.0,-24.0,-23.0,-24.0,1.0,27.032258064516128,5.388159060803248,-1510.0,33.0,49.5625,0.49999999999999445,3172.0,49.0,50.0,50.0,1.0,-1.9365079365079365,-0.25197631533948484,3122.0,28.857142857142858,0.0
4.1852128125,0.009579770545862433,267.85362,4.170329,4.198496,4.183132,0.02816699999999983,-1.3840706633311033,-0.02799214507785228,0.0004999388278388358,263.6692075,-0.9899999999999995,6.176289788824061,-63.35999999999997,-10.8,9.52,-0.79,20.32,-1.129099967549758,0.094191077531426,35.801249999999996,0.009999990713509968,2291.2799999999997,35.79,35.81,35.81,0.020000000000003126,-1.9365079365084332,-0.25197631533800774,-0.00046153846153832866,-28.90625,0.38704210016686347,-1850.0,-30.0,-28.0,-29.0,2.0,2.9371518793035394,0.9086406235021025,-1821.0,30.333333333333332,-23.96875,0.1753680936030515,-1534.0,-24.0,-23.0,-24.0,1.0,27.032258064516128,5.388159060803248,-1510.0,32.0,49.5625,0.49999999999999445,3172.0,49.0,50.0,50.0,1.0,-1.9365079365079365,-0.25197631533948484,3122.0,27.857142857142858,0.0
4.185652921875,0.009532030271148658,267.881787,4.170329,4.198496,4.183132,0.02816699999999983,-1.3875990589162965,-0.06392454093258351,0.000496948740842485,263.6973745,-1.0276562499999995,6.160948633969716,-65.76999999999997,-10.8,9.52,-0.79,20.32,-1.10988985262437,0.11015739243217768,35.800937499999996,0.010034652894570924,2291.2599999999998,35.79,35.81,35.81,0.020000000000003126,-1.964532019704778,-0.18832944617093172,-0.0004647435897435323,-28.890625,0.4030513575530868,-1849.0,-30.0,-28.0,-29.0,2.0,2.315636617912709,0.8693943534433854,-1820.5,29.333333333333332,-23.984375,0.21764887260455087,-1535.0,-25.0,-23.0,-24.0,2.0,18.13968915325786,1.3342564187643504,-1510.5,31.0,49.546875,0.5017331074496733,3171.0,49.0,50.0,50.0,1.0,-1.9645320197044336,-0.18832944617230335,3121.5,31.0,0.0
4.18609303125,0.009463279392325276,267.909954,4.170329,4.198496,4.183132,0.02816699999999983,-1.3911845440784636,-0.09813377381792675,0.000492668956043937,263.7255415,-1.0774999999999995,6.139892714018654,-68.95999999999997,-10.8,9.52,-0.79,20.32,-1.0832264881370905,0.13103789948528818,35.800625,0.010059338470314174,2291.24,35.79,35.81,35.81,0.020000000000003126,-1.9843137254904077,-0.12524485821576173,-0.0004670329670329366,-28.875,0.41785544701866023,-1848.0,-30.0,-28.0,-29.0,2.0,1.8016528925619832,0.8223036670302644,-1819.5,28.333333333333332,-24.0,0.2519763153394851,-1536.0,-25.0,-23.0,-24.0,2.0,13.0,0.0,-1511.5,30.0,49.53125,0.5029673851018418,3170.0,49.0,50.0,50.0,1.0,-1.9843137254901961,-0.1252448582170299,3120.5,30.0,0.0
4.1865331406249995,0.00937305558570497,267.93812099999997,4.170329,4.198496,4.183132,0.02816699999999983,-1.3967683458524762,-0.12990039790531704,0.0004870994734432102,263.7537085,-1.1409374999999997,6.1110741836888405,-73.01999999999998,-10.8,9.52,-0.815,20.32,-1.046727283091567,0.1568581240969604,35.8003125,0.01007412078087968,2291.22,35.79,35.81,35.81,0.020000000000003126,-1.9960899315738998,-0.06253053994690598,-0.00046840659340618095,-28.875,0.41785544701866023,-1848.0,-30.0,-28.0,-29.0,2.0,1.8016528925619832,0.8223036670302644,-1819.0,35.75,-24.0,0.2519763153394851,-1536.0,-25.0,-23.0,-24.0,2.0,13.0,0.0,-1512.0,29.0,49.515625,0.5037064999533278,3169.0,49.0,50.0,50.0,1.0,-1.9960899315738025,-0.06253053994807224,3119.5,29.0,0.0
4.186973249999999,0.00926073126467964,267.96628799999996,4.17417,4.198496,4.187613499999999,0.024325999999999404,-1.4072536983451125,-0.15830000418900572,0.0004802402930402962,263.77995500000003,-1.2165624999999995,6.073005379975791,-77.85999999999997,-10.8,9.52,-0.905,20.32,-0.998969146835234,0.1862411264176272,35.8,0.010079043399884136,2291.2,35.79,35.81,35.8,0.020000000000003126,-2.0000000000000004,1.06572626632302e-12,-0.0004688644688643757,-28.875,0.41785544701866023,-1848.0,-30.0,-28.0,-29.0,2.0,1.8016528925619832,0.8223036670302644,-1819.0,34.75,-24.0,0.2519763153394851,-1536.0,-25.0,-23.0,-24.0,2.0,13.0,0.0,-1512.0,28.0,49.5,0.5039526306789632,3168.0,49.0,50.0,49.5,1.0,-2.0,0.0,3119.0,28.0,0.0
4.187373359375,0.009251957533581408,267.991895,4.17417,4.199777,4.192095,0.025606999999999935,-1.376890533751149,-0.20479724076378886,0.0004796547847985824,263.80492150000003,-1.3015624999999995,6.024338524906714,-83.29999999999997,-10.8,9.52,-0.905,20.32,-0.9391914588759547,0.21697746354871436,35.799687500000005,0.010074120780858798,2291.1800000000003,35.79,35.81,35.79,0.020000000000003126,-1.9960899315737224,0.06253053994903854,-0.00046840659340647927,-28.875,0.41785544701866023,-1848.0,-30.0,-28.0,-29.0,2.0,1.8016528925619832,0.8223036670302644,-1819.0,33.75,-24.0,0.2519763153394851,-1536.0,-25.0,-23.0,-24.0,2.0,13.0,0.0,-1512.0,27.0,49.515625,0.5037064999533278,3169.0,49.0,50.0,50.0,1.0,-1.9960899315738025,-0.06253053994807224,3119.5,27.0,0.0
4.18777346875,0.009225564247383989,268.017502,4.17417,4.199777,4.192095,0.025606999999999935,-1.3406025921593656,-0.2520010941839534,0.0004778967948718048,263.8305285,-1.3935937499999995,5.963623423746218,-89.18999999999997,-10.8,9.52,-0.905,20.32,-0.8671909023775082,0.2467639081966682,35.799375000000005,0.01005933847027246,2291.1600000000003,35.79,35.81,35.79,0.020000000000003126,-1.9843137254900518,0.12524485821789744,-0.00046703296703275496,-28.875,0.41785544701866023,-1848.0,-30.0,-28.0,-29.0,2.0,1.8016528925619832,0.8223036670302644,-1819.0,32.75,-24.0,0.2519763153394851,-1536.0,-25.0,-23.0,-24.0,2.0,13.0,0.0,-1512.0,26.0,49.53125,0.5029673851018418,3170.0,49.0,50.0,50.0,1.0,-1.9843137254901961,-0.1252448582170299,3120.0,29.571428571428573,0.0
4.188173578124999,0.009181399457319285,268.04310899999996,4.17417,4.199777,4.192095,0.025606999999999935,-1.2979623304223988,-0.2997221684240265,0.0004749663232601127,263.8561355,-1.4920312499999995,5.888823468253617,-95.48999999999997,-10.8,9.52,-0.905,20.32,-0.7831770140168484,0.27348674204619083,35.799062500000005,0.010034652894508255,2291.1400000000003,35.79,35.81,35.79,0.020000000000003126,-1.9645320197042402,0.18832944617307285,-0.0004647435897438436,-28.890625,0.44067723854474034,-1849.0,-30.0,-28.0,-29.0,2.0,1.6362942411297547,0.5424916811018318,-1819.5,31.75,-23.984375,0.28127755596930193,-1535.0,-25.0,-23.0,-24.0,2.0,9.73821011979049,0.5507657364825927,-1511.5,25.0,49.53125,0.5029673851018418,3170.0,49.0,50.0,50.0,1.0,-1.9843137254901961,-0.1252448582170299,3120.0,28.571428571428573,0.0
4.1885736875,0.009119204962054185,268.068716,4.17417,4.199777,4.192095,0.025606999999999935,-1.2486726566722306,-0.3477586467189986,0.00047086336996334665,263.88174250000003,-1.5979687499999997,5.796634814578876,-102.26999999999998,-10.8,9.52,-0.905,20.32,-0.688159110016445,0.2946402613670938,35.79875,0.009999990713426157,2291.12,35.79,35.81,35.79,0.020000000000003126,-1.9365079365077107,0.2519763153401562,-0.0004615384615384519,-28.90625,0.46183725574453155,-1850.0,-30.0,-28.0,-29.0,2.0,1.4210924824229316,0.352099403168477,-1820.5,30.75,-23.96875,0.30699516567208696,-1534.0,-25.0,-23.0,-24.0,2.0,7.502049861495845,0.7970231829882565,-1510.5,24.0,49.53125,0.5029673851018418,3170.0,49.0,50.0,50.0,1.0,-1.9843137254901961,-0.1252448582170299,3120.0,27.571428571428573,0.0
4.188973796875,0.009038608583066408,268.094323,4.17417,4.199777,4.192095,0.025606999999999935,-1.1925922124892796,-0.39587408706523564,0.00046558793498172697,263.9073495,-1.7137499999999997,5.682679755742529,-109.67999999999998,-10.8,9.52,-0.905,20.32,-0.585395782308578,0.30678218917855543,35.7984375,0.009955247717939663,2291.1,35.79,35.81,35.79,0.020000000000003126,-1.8998998998996584,0.3163859985847396,-0.0004574175824174554,-28.921875,0.48155460881381873,-1851.0,-30.0,-28.0,-29.0,2.0,1.1919242757871258,0.22140442359688353,-1821.5,29.75,-23.96875,0.30699516567208696,-1534.0,-25.0,-23.0,-24.0,2.0,7.502049861495845,0.7970231829882565,-1510.0,42.0,49.53125,0.5029673851018418,3170.0,49.0,50.0,50.0,1.0,-1.9843137254901961,-0.1252448582170299,3120.0,26.571428571428573,0.0
4.189373906249999,0.008939112591787113,268.11992999999995,4.17417,4.199777,4.192095,0.025606999999999935,-1.1297948310621824,-0.4437694188179224,0.0004591400183150484,263.93295650000005,-1.8407812499999996,5.543302924831459,-117.80999999999997,-10.8,9.52,-0.905,20.32,-0.48321544943093286,0.30476183150255054,35.798125,0.009900287232402067,2291.08,35.79,35.81,35.79,0.020000000000003126,-1.8542510121455065,0.38177085778594155,-0.00045238095238097985,-28.9375,0.49999999999998834,-1852.0,-30.0,-28.0,-29.0,2.0,0.9659863945578233,0.13198759374925395,-1822.5,28.75,-23.96875,0.30699516567208696,-1534.0,-25.0,-23.0,-24.0,2.0,7.502049861495845,0.7970231829882565,-1510.0,41.0,49.53125,0.5029673851018418,3170.0,49.0,50.0,50.0,1.0,-1.9843137254901961,-0.1252448582170299,3120.5,25.571428571428573,0.0
4.189774015625,0.00882007741305309,268.145537,4.17417,4.199777,4.192095,0.025606999999999935,-1.060679173234906,-0.49104490869072154,0.0004515196199633881,263.9585635,-1.9785937499999997,5.3776848937479595,-126.62999999999998,-10.8,9.52,-0.905,20.32,-0.3954616838153133,0.28248406936013576,35.7978125,0.009834937963412376,2291.06,35.79,35.81,35.79,0.020000000000003126,-1.7989743589741343,0.44835883065461946,-0.00044642857142887114,-28.9375,0.49999999999998834,-1852.0,-30.0,-28.0,-29.0,2.0,0.9659863945578233,0.13198759374925395,-1823.0,27.75,-23.96875,0.30699516567208696,-1534.0,-25.0,-23.0,-24.0,2.0,7.502049861495845,0.7970231829882565,-1510.0,40.0,49.53125,0.5029673851018418,3170.0,49.0,50.0,50.0,1.0,-1.9843137254901961,-0.1252448582170299,3121.0,28.875,0.0
4.190174125,0.008680699283392372,268.171144,4.17417,4.199777,4.192095,0.025606999999999935,-0.9861576882607692,-0.5371456078599964,0.00044272673992673826,263.9841705,-2.1239062499999997,5.188768278215594,-135.92999999999998,-10.8,9.52,-0.905,20.32,-0.34068039668142625,0.2332069144266169,35.7975,0.009758991213535458,2291.04,35.79,35.81,35.79,0.020000000000003126,-1.733333333333143,0.5163977794945979,-0.000439560439560797,-28.9375,0.49999999999998834,-1852.0,-30.0,-28.0,-29.0,2.0,0.9659863945578233,0.13198759374925395,-1823.5,35.666666666666664,-23.96875,0.30699516567208696,-1534.0,-25.0,-23.0,-24.0,2.0,7.502049861495845,0.7970231829882565,-1510.0,39.0,49.53125,0.5029673851018418,3170.0,49.0,50.0,50.0,1.0,-1.9843137254901961,-0.1252448582170299,3121.0,27.875,0.0
4.190574234375,0.008519979891875662,268.196751,4.17417,4.199777,4.192095,0.025606999999999935,-0.9079772693356456,-0.5812797775378717,0.0004327613782051275,264.00977750000004,-2.2717187499999993,4.982444594959568,-145.38999999999996,-10.8,9.4,-0.905,20.200000000000003,-0.33983771424917597,0.15027584402445437,35.7971875,0.009672197349575824,2291.02,35.79,35.81,35.79,0.020000000000003126,-1.656415694591593,0.5861606481234257,-0.0004317765567766316,-28.953125,0.485657384622208,-1853.0,-30.0,-28.0,-29.0,2.0,1.2418141952518846,0.12623088847711256,-1824.5,34.666666666666664,-23.96875,0.30699516567208696,-1534.0,-25.0,-23.0,-24.0,2.0,7.502049861495845,0.7970231829882565,-1510.0,38.0,49.546875,0.5017331074496733,3171.0,49.0,50.0,50.0,1.0,-1.9645320197044336,-0.18832944617230335,3121.5,26.875,0.0
4.19097434375,0.008336685042634124,268.222358,4.17417,4.199777,4.192095,0.025606999999999935,-0.8292670256371113,-0.622292552634171,0.000421623534798538,264.0353845,-2.4157812499999993,4.768303350276123,-154.60999999999996,-10.8,9.01,-0.905,19.810000000000002,-0.4084187407743092,0.03036754146169691,35.796875,0.009574261377986708,2291.0,35.79,35.81,35.79,0.020000000000003126,-1.5670995670995054,0.6579516949598392,-0.00042307692307686146,-28.96875,0.4703511015509015,-1854.0,-30.0,-28.0,-29.0,2.0,1.55711958816787,0.10630310927559573,-1825.0,33.666666666666664,-23.96875,0.30699516567208696,-1534.0,-25.0,-23.0,-24.0,2.0,7.502049861495845,0.7970231829882565,-1510.0,37.0,49.5625,0.49999999999999445,3172.0,49.0,50.0,50.0,1.0,-1.9365079365079365,-0.25197631533948484,3122.5,25.875,0.0
4.191374453125,0.008129287820899882,268.247965,4.17417,4.199777,4.192095,0.025606999999999935,-0.7554918778729638,-0.6584636808463713,0.0004093132097069596,264.0609915,-2.5506249999999993,4.557424389221261,-163.23999999999995,-10.8,8.3,-0.905,19.1,-0.549319874293249,-0.1241374174987389,35.7965625,0.00946483743127484,2290.98,35.79,35.81,35.79,0.020000000000003126,-1.4640088593577305,0.7321141582036585,-0.00041346153846158386,-28.96875,0.4703511015509015,-1854.0,-30.0,-28.0,-29.0,2.0,1.55711958816787,0.10630310927559573,-1825.0,32.666666666666664,-23.96875,0.30699516567208696,-1534.0,-25.0,-23.0,-24.0,2.0,7.502049861495845,0.7970231829882565,-1510.0,36.0,49.578125,0.49776285231307876,3173.0,49.0,50.0,50.0,1.0,-1.8998998998999,-0.31638599858416633,3123.5,24.875,0.0
4.1917745625,0.007895889201528863,268.273572,4.17417,4.199777,4.192095,0.025606999999999935,-0.696159071775285,-0.6871723324452271,0.00039583040293040737,264.08659850000004,-2.6715624999999994,4.363487108041022,-170.97999999999996,-10.8,7.26,-0.905,18.060000000000002,-0.7340839567555761,-0.2978177369685828,35.79625,0.009343521903891582,2290.96,35.79,35.81,35.79,0.020000000000003126,-1.3454545454547013,0.8090398349557466,-0.0004029304029301866,-28.96875,0.4703511015509015,-1854.0,-30.0,-28.0,-29.0,2.0,1.55711958816787,0.10630310927559573,-1825.0,31.666666666666668,-23.96875,0.30699516567208696,-1534.0,-25.0,-23.0,-24.0,2.0,7.502049861495845,0.7970231829882565,-1510.0,35.0,49.59375,0.49501483062598983,3174.0,49.0,50.0,50.0,1.0,-1.854251012145749,-0.38177085778546666,3124.0,27.285714285714285,0.0
4.192174671875,0.0076341047231123825,268.299179,4.17417,4.199777,4.192095,0.025606999999999935,-0.6679823677941501,-0.7043199091769249,0.00038117511446890786,264.1122055,-2.7759374999999995,4.198943071374434,-177.65999999999997,-10.8,5.91,-0.905,16.71,-0.9065488025920709,-0.46330841587476657,35.7959375,0.009209844886757398,2290.94,35.79,35.81,35.79,0.020000000000003126,-1.2093567251437354,0.8891812384758777,-0.00039148351648346454,-28.96875,0.4703511015509015,-1854.0,-30.0,-28.0,-29.0,2.0,1.55711958816787,0.10630310927559573,-1825.0,30.666666666666668,-23.96875,0.30699516567208696,-1534.0,-25.0,-23.0,-24.0,2.0,7.502049861495845,0.7970231829882565,-1510.0,34.0,49.59375,0.49501483062598983,3174.0,49.0,50.0,50.0,1.0,-1.854251012145749,-0.38177085778546666,3124.0,26.285714285714285,0.0
4.19257478125,0.007340898200963607,268.324786,4.17417,4.199777,4.192095,0.025606999999999935,-0.7010130861635999,-0.703291056841537,0.00036534734432238806,264.1378125,-2.8625,4.072229996308391,-183.2,-10.8,4.37,-0.905,15.170000000000002,-1.0150347583724602,-0.5915073652201617,35.795625,0.009063259425248075,2290.92,35.79,35.81,35.79,0.020000000000003126,-1.0531400966188396,0.9730672655993113,-0.00037912087912098346,-28.96875,0.4703511015509015,-1854.0,-30.0,-28.0,-29.0,2.0,1.55711958816787,0.10630310927559573,-1825.0,29.666666666666668,-23.96875,0.30699516567208696,-1534.0,-25.0,-23.0,-24.0,2.0,7.502049861495845,0.7970231829882565,-1510.0,33.0,49.59375,0.49501483062598983,3174.0,49.0,50.0,50.0,1.0,-1.854251012145749,-0.38177085778546666,3124.5,25.285714285714285,0.0
4.192974890625,0.007012329192444673,268.350393,4.17417,4.199777,4.192095,0.025606999999999935,-0.8511833979187502,-0.6729819710627648,0.00034834709249086007,264.16341950000003,-2.932031249999999,3.9838093677220185,-187.64999999999995,-10.8,2.64,-0.905,13.440000000000001,-1.053138040071293,-0.6692727737007097,35.7953125,0.008903127949330606,2290.9,35.79,35.81,35.79,0.020000000000003126,-0.8735919899847628,1.0613237065177603,-0.00036584249084238276,-28.96875,0.4703511015509015,-1854.0,-30.0,-28.0,-29.0,2.0,1.55711958816787,0.10630310927559573,-1825.0,28.666666666666668,-23.96875,0.30699516567208696,-1534.0,-25.0,-23.0,-24.0,2.0,7.502049861495845,0.7970231829882565,-1510.0,32.0,49.59375,0.49501483062598983,3174.0,49.0,50.0,50.0,1.0,-1.854251012145749,-0.38177085778546666,3125.0,28.625,0.0
4.193375,0.006643152703524891,268.376,4.183132,4.199777,4.1952955,0.016645000000000465,-1.227766314779968,-0.5938094938729783,0.0003301743589743726,264.1845455,-2.9842187499999997,3.9311869868996,-190.98999999999998,-10.8,1.19,-0.965,11.99,-1.048675313561147,-0.6989956346221476,35.795,0.008728704970185585,2290.88,35.79,35.81,35.79,0.020000000000003126,-0.6666666666638239,1.1547005383810973,-0.00035164835164865185,-28.96875,0.4703511015509015,-1854.0,-30.0,-28.0,-29.0,2.0,1.55711958816787,0.10630310927559573,-1825.0,27.666666666666668,-23.96875,0.30699516567208696,-1534.0,-25.0,-23.0,-24.0,2.0,7.502049861495845,0.7970231829882565,-1510.0,31.0,49.59375,0.49501483062598983,3174.0,49.0,50.0,50.0,1.0,-1.854251012145749,-0.38177085778546666,3124.5,31.428571428571427,0.0
4.19369509375,0.006635313970281715,268.396486,4.183132,4.203618,4.198496,0.020486000000000004,-1.1121689466385296,-0.6241902544221816,0.0003297053571428853,264.2031110000001,-3.0170312499999996,3.9083060430279453,-193.08999999999997,-10.8,1.19,-1.26,11.99,-1.039468214835321,-0.6986522406071942,35.7946875,0.00853911476281472,2290.86,35.79,35.81,35.79,0.020000000000003126,-0.4272108843507847,1.254108893059408,-0.00033653846153828637,-28.96875,0.4703511015509015,-1854.0,-30.0,-28.0,-29.0,2.0,1.55711958816787,0.10630310927559573,-1825.0,26.666666666666668,-23.96875,0.30699516567208696,-1534.0,-25.0,-23.0,-24.0,2.0,7.502049861495845,0.7970231829882565,-1510.0,30.0,49.578125,0.49776285231307876,3173.0,49.0,50.0,50.0,1.0,-1.8998998998999,-0.31638599858416633,3123.5,30.428571428571427,0.0
4.1940151875,0.006611742010227821,268.416972,4.183132,4.203618,4.198496,0.020486000000000004,-0.9941941039534483,-0.6580731486252469,0.00032829835164835,264.22359700000004,-3.0285937499999993,3.9040275773080104,-193.82999999999996,-10.8,1.19,-1.3250000000000002,11.99,-1.039815098434023,-0.6932221974927455,35.794375,0.008333322189264452,2290.84,35.79,35.81,35.79,0.020000000000003126,-0.14857142856835726,1.3606721028349105,-0.00032051282051267675,-28.96875,0.4703511015509015,-1854.0,-30.0,-28.0,-29.0,2.0,1.55711958816787,0.10630310927559573,-1825.0,25.666666666666668,-23.96875,0.30699516567208696,-1534.0,-25.0,-23.0,-24.0,2.0,7.502049861495845,0.7970231829882565,-1510.0,29.0,49.5625,0.49999999999999445,3172.0,49.0,50.0,50.0,1.0,-1.9365079365079365,-0.25197631533948484,3122.5,29.428571428571427,0.0
4.19433528125,0.006572267540136906,268.437458,4.183132,4.203618,4.198496,0.020486000000000004,-0.8713519977430031,-0.6948389501278912,0.0003259533424908691,264.244083,-3.0179687499999996,3.9045619146091632,-193.14999999999998,-10.8,1.19,-1.3250000000000002,11.99,-1.0332353583463125,-0.7011229685022692,35.7940625,0.008110093944538578,2290.82,35.79,35.81,35.79,0.020000000000003126,0.17797888386441363,1.4757977110247873,-0.0003035714285710899,-28.96875,0.4703511015509015,-1854.0,-30.0,-28.0,-29.0,2.0,1.55711958816787,0.10630310927559573,-1825.0,24.666666666666668,-23.96875,0.30699516567208696,-1534.0,-25.0,-23.0,-24.0,2.0,7.502049861495845,0.7970231829882565,-1510.0,28.0,49.546875,0.5017331074496733,3171.0,49.0,50.0,50.0,1.0,-1.9645320197044336,-0.18832944617230335,3121.5,28.428571428571427,0.0
4.194655375,0.006516601576910555,268.457944,4.183132,4.203618,4.198496,0.020486000000000004,-0.7415269963089273,-0.7339081083102272,0.0003226703296703402,264.26456900000005,-2.9865624999999993,3.896605449330798,-191.13999999999996,-10.8,1.19,-1.3250000000000002,11.99,-0.9949068255215834,-0.7277555737265697,35.79375,0.007867946121446333,2290.8,35.79,35.81,35.79,0.020000000000003126,0.5641025641058435,1.6012815380524072,-0.00028571428571413313,-28.96875,0.4703511015509015,-1854.0,-30.0,-28.0,-29.0,2.0,1.55711958816787,0.10630310927559573,-1825.0,23.666666666666668,-23.96875,0.30699516567208696,-1534.0,-25.0,-23.0,-24.0,2.0,7.502049861495845,0.7970231829882565,-1510.0,27.0,49.53125,0.5029673851018418,3170.0,49.0,50.0,50.0,1.0,-1.9843137254901961,-0.1252448582170299,3121.0,27.428571428571427,0.0
4.19497546875,0.006444324548700131,268.47843,4.183132,4.203618,4.198496,0.020486000000000004,-0.6029277507984125,-0.7746855607015822,0.0003184493131867998,264.285055,-2.9396874999999993,3.871264494924008,-188.13999999999996,-10.8,1.19,-1.3250000000000002,11.99,-0.9166747988763251,-0.7665307754001753,35.793437499999996,0.007605071719077373,2290.7799999999997,35.79,35.81,35.79,0.020000000000003126,1.0257289879965148,1.739462269782879,-0.0002669413919411825,-28.96875,0.4703511015509015,-1854.0,-30.0,-28.0,-29.0,2.0,1.55711958816787,0.10630310927559573,-1825.0,22.666666666666668,-23.96875,0.30699516567208696,-1534.0,-25.0,-23.0,-24.0,2.0,7.502049861495845,0.7970231829882565,-1510.0,26.0,49.546875,0.5017331074496733,3171.0,49.0,50.0,50.0,1.0,-1.9645320197044336,-0.18832944617230335,3121.5,26.428571428571427,0.0
4.1952955625,0.006354869703581281,268.498916,4.183132,4.203618,4.198496,0.020486000000000004,-0.454113493569829,-0.8164947577503029,0.0003132902930402945,264.305541,-2.8835937499999993,3.8251620433276803,-184.54999999999995,-10.8,1.19,-1.3250000000000002,11.99,-0.8105653930203558,-0.8063145339074721,35.793124999999996,0.007319237858973131,2290.7599999999998,35.79,35.81,35.79,0.020000000000003126,1.58518518518866,1.8934585248138907,-0.0002472527472525298,-28.96875,0.4703511015509015,-1854.0,-30.0,-28.0,-29.0,2.0,1.55711958816787,0.10630310927559573,-1825.0,21.666666666666668,-23.96875,0.30699516567208696,-1534.0,-25.0,-23.0,-24.0,2.0,7.502049861495845,0.7970231829882565,-1510.0,25.0,49.5625,0.49999999999999445,3172.0,49.0,50.0,50.0,1.0,-1.9365079365079365,-0.25197631533948484,3122.5,25.428571428571427,0.0
4.195615656249999,0.006247499203180536,268.51940199999996,4.183132,4.203618,4.198496,0.020486000000000004,-0.2941273011612564,-0.8584888229200881,0.000307193269230769,264.326027,-2.82390625,3.7596692767334217,-180.73,-10.8,1.19,-1.3250000000000002,11.99,-0.7032184286202132,-0.8359554442522195,35.7928125,0.007007635629920404,2290.74,35.79,35.81,35.79,0.020000000000003126,2.2747474747510372,2.067546244888568,-0.00022664835164795197,-28.96875,0.4703511015509015,-1854.0,-30.0,-28.0,-29.0,2.0,1.55711958816787,0.10630310927559573,-1825.0,20.666666666666668,-23.96875,0.30699516567208696,-1534.0,-25.0,-23.0,-24.0,2.0,7.502049861495845,0.7970231829882565,-1510.0,24.0,49.578125,0.49776285231307876,3173.0,49.0,50.0,50.0,1.0,-1.8998998998999,-0.31638599858416633,3123.5,24.428571428571427,0.0
4.195935749999999,0.006121270368291023,268.53988799999996,4.183132,4.203618,4.198496,0.020486000000000004,-0.12280478339362544,-0.8995195682442868,0.0003001582417582407,264.346513,-2.7634374999999993,3.6775467231253987,-176.85999999999996,-10.8,1.19,-1.3250000000000002,11.99,-0.6264574101136504,-0.8471030639213837,35.7925,0.006666652736480378,2290.72,35.79,35.81,35.79,0.020000000000003126,3.142857142860798,2.2677868380565727,-0.00020512820512845042,-28.96875,0.4703511015509015,-1854.0,-30.0,-28.0,-29.0,2.0,1.55711958816787,0.10630310927559573,-1825.5,29.5,-23.96875,0.30699516567208696,-1534.0,-25.0,-23.0,-24.0,2.0,7.502049861495845,0.7970231829882565,-1510.0,23.0,49.59375,0.49501483062598983,3174.0,49.0,50.0,50.0,1.0,-1.854251012145749,-0.38177085778546666,3124.0,27.333333333333332,0.0
4.1962558437499995,0.0059749881032035625,268.56037399999997,4.183132,4.203618,4.198496,0.020486000000000004,0.05860101307791998,-0.937930937588678,0.0002921852106226973,264.366999,-2.7020312499999997,3.5803857997672712,-172.92999999999998,-10.8,1.19,-1.3250000000000002,11.99,-0.609731472909925,-0.8346570495643771,35.7921875,0.006291513935254354,2290.7,35.79,35.81,35.79,0.020000000000003126,4.265664160404743,2.503130871609916,-0.0001826923076923309,-28.984375,0.4539836896587562,-1855.0,-30.0,-28.0,-29.0,2.0,1.918431536098911,0.0668745659232135,-1826.5,28.5,-23.96875,0.30699516567208696,-1534.0,-25.0,-23.0,-24.0,2.0,7.502049861495845,0.7970231829882565,-1510.0,22.0,49.59375,0.49501483062598983,3174.0,49.0,50.0,50.0,1.0,-1.854251012145749,-0.38177085778546666,3124.0,26.333333333333332,0.0
4.1965759375,0.005807137162910878,268.58086,4.183132,4.203618,4.198496,0.020486000000000004,0.24618805375163344,-0.9712152560973452,0.00028327417582418754,264.387485,-2.6382812499999995,3.4694176606091336,-168.84999999999997,-10.8,1.19,-1.3250000000000002,11.99,-0.671246069740473,-0.7971397305636436,35.791875000000005,0.005875680708459674,2290.6800000000003,35.79,35.81,35.79,0.020000000000003126,5.77011494253256,2.787492590579296,-0.0001593406593407727,-29.0,0.4364357804719699,-1856.0,-30.0,-28.0,-29.0,2.0,2.333333333333333,0.0,-1827.0,27.5,-23.96875,0.30699516567208696,-1534.0,-25.0,-23.0,-24.0,2.0,7.502049861495845,0.7970231829882565,-1510.0,21.0,49.59375,0.49501483062598983,3174.0,49.0,50.0,50.0,1.0,-1.854251012145749,-0.38177085778546666,3124.5,25.333333333333332,0.0
4.19689603125,0.005615783872980439,268.601346,4.183132,4.203618,4.198496,0.020486000000000004,0.4309475944463177,-0.9954122335826578,0.0002734251373626713,264.40797100000003,-2.5710937499999993,3.3483765870681155,-164.54999999999995,-10.47,1.19,-1.3250000000000002,11.66,-0.7990827262219304,-0.7402765520688884,35.791562500000005,0.00540977700830798,2290.6600000000003,35.79,35.81,35.79,0.020000000000003126,7.884745762715765,3.1440015525946747,-0.00013507326007324908,-29.0,0.4364357804719699,-1856.0,-30.0,-28.0,-29.0,2.0,2.333333333333333,0.0,-1827.0,26.5,-23.96875,0.30699516567208696,-1534.0,-25.0,-23.0,-24.0,2.0,7.502049861495845,0.7970231829882565,-1510.0,20.0,49.59375,0.49501483062598983,3174.0,49.0,50.0,50.0,1.0,-1.854251012145749,-0.38177085778546666,3125.0,29.285714285714285,0.0
4.197216125,0.0053984296115559246,268.621832,4.183132,4.203618,4.198496,0.020486000000000004,0.5936901078769714,-1.0040028302415753,0.00026263809523811925,264.42845700000004,-2.5001562499999994,3.2241644627890245,-160.00999999999996,-9.86,1.19,-1.3250000000000002,11.049999999999999,-0.9444727083846307,-0.6785513972754144,35.791250000000005,0.004879481332381239,2290.6400000000003,35.79,35.81,35.79,0.020000000000003126,11.066666666670633,3.614784456461081,-0.00010989010988999494,-29.0,0.4364357804719699,-1856.0,-30.0,-28.0,-29.0,2.0,2.333333333333333,0.0,-1827.0,25.5,-23.96875,0.30699516567208696,-1534.0,-25.0,-23.0,-24.0,2.0,7.502049861495845,0.7970231829882565,-1510.5,38.0,49.59375,0.49501483062598983,3174.0,49.0,50.0,50.0,1.0,-1.854251012145749,-0.38177085778546666,3124.5,33.0,0.0
4.19753621875,0.005151784478950048,268.642318,4.183132,4.203618,4.198496,0.020486000000000004,0.6940243607698391,-0.9857508122583598,0.00025091304945056784,264.44894300000004,-2.4242187499999996,3.10302658433853,-155.14999999999998,-9.13,1.19,-1.3250000000000002,10.32,-1.049203835336548,-0.6300739072919239,35.7909375,0.004260818720396497,2290.62,35.79,35.81,35.79,0.020000000000003126,16.38251366120625,4.287483371537236,-8.379120879087265e-05,-29.0,0.4364357804719699,-1856.0,-30.0,-28.0,-29.0,2.0,2.333333333333333,0.0,-1827.0,24.5,-23.984375,0.28127755596930193,-1535.0,-25.0,-23.0,-24.0,2.0,9.73821011979049,0.5507657364825927,-1511.5,37.0,49.59375,0.49501483062598983,3174.0,49.0,50.0,50.0,1.0,-1.854251012145749,-0.38177085778546666,3124.0,32.0,0.0
4.1978563125,0.004871401404925229,268.662804,4.183132,4.203618,4.198496,0.020486000000000004,0.6447255084613035,-0.9201832263607502,0.0002382500000000186,264.46942900000005,-2.3412499999999996,2.9898051643228607,-149.83999999999997,-8.48,1.19,-1.3250000000000002,9.67,-1.080294664939919,-0.609450521421465,35.790625,0.0035073353938128776,2290.6,35.79,35.81,35.79,0.020000000000003126,27.032258064520242,5.38815906080382,-5.6776556776340154e-05,-29.0,0.4364357804719699,-1856.0,-30.0,-28.0,-29.0,2.0,2.333333333333333,0.0,-1826.5,23.5,-24.0,0.2519763153394851,-1536.0,-25.0,-23.0,-24.0,2.0,13.0,0.0,-1512.0,36.0,49.59375,0.49501483062598983,3174.0,49.0,50.0,50.0,1.0,-1.854251012145749,-0.38177085778546666,3124.5,31.0,0.0
4.19817640625,0.004551049028739948,268.68329,4.183132,4.203618,4.198496,0.020486000000000004,0.2464619306217135,-0.7672496196109544,0.00022464894688646646,264.48991500000005,-2.2476562499999995,2.8865592975634065,-143.84999999999997,-8.04,1.19,-1.3250000000000002,9.229999999999999,-1.0455620870836204,-0.6214132312989274,35.7903125,0.0024999628523021795,2290.58,35.79,35.81,35.79,0.020000000000003126,59.0158730158772,7.811265775524439,-2.8846153846134116e-05,-28.984375,0.4175585692213083,-1855.0,-30.0,-28.0,-29.0,2.0,2.810134983377478,0.10654823419628467,-1825.5,22.5,-24.0,0.2519763153394851,-1536.0,-25.0,-23.0,-24.0,2.0,13.0,0.0,-1512.0,35.0,49.609375,0.49174737029339705,3175.0,49.0,50.0,50.0,1.0,-1.798974358974359,-0.448358830654244,3125.5,30.0,0.0
4.25228984375,0.026996959699054846,272.14655,4.217701,4.300923,4.261232,0.08322200000000013,-1.3477407441514164,0.1491255746004397,0.0014031716575091718,267.88723799999997,1.2837500000000004,3.0493379453151506,82.16000000000003,-2.96,6.53,0.655,9.49,-1.2849605134638153,0.320185001328993,35.7896875,0.0024999628522162434,2290.54,35.77,35.79,35.79,0.01999999999999602,59.01587301587583,-7.8112657755243,-2.884615384627818e-05,-29.09375,0.38704210016685825,-1862.0,-30.0,-28.0,-29.0,2.0,2.9371518793035394,-0.9086406235021025,-1833.0,18.0,-23.875,0.3333333333333349,-1528.0,-24.0,-23.0,-24.0,1.0,3.1428571428571432,2.267786838055363,-1504.0,19.0,49.5,0.5039526306789632,3168.0,49.0,50.0,49.5,1.0,-2.0,0.0,3119.0,33.5,0.0
4.2535901875,0.02730696639002452,272.229772,4.217701,4.300923,4.261232,0.08322200000000013,-1.3382021442768612,0.1228961136801996,0.0014218441391941874,267.97046,1.3371875000000004,3.071325378938261,85.58000000000003,-2.96,6.53,0.685,9.49,-1.340494778891919,0.2753495427079695,35.789375,0.0035073353936903805,2290.52,35.77,35.79,35.79,0.01999999999999602,27.03225806447487,-5.388159060797505,-5.677655677654769e-05,-29.09375,0.38704210016685825,-1862.0,-30.0,-28.0,-29.0,2.0,2.9371518793035394,-0.9086406235021025,-1833.0,17.0,-23.875,0.3333333333333349,-1528.0,-24.0,-23.0,-24.0,1.0,3.1428571428571432,2.267786838055363,-1504.0,18.0,49.5,0.5039526306789632,3168.0,49.0,50.0,49.5,1.0,-2.0,0.0,3118.5,37.0,0.0
4.25489053125,0.027551216433266974,272.312994,4.217701,4.300923,4.261232,0.08322200000000013,-1.3336516981001743,0.09332336010469974,0.001436706089743566,268.053682,1.3818750000000004,3.0922498487284384,88.44000000000003,-2.96,6.53,0.685,9.49,-1.3881398093143853,0.23892598650242314,35.7890625,0.004260818720245518,2290.5,35.77,35.79,35.79,0.01999999999999602,16.382513661204893,-4.287483371536995,-8.379120879108664e-05,-29.09375,0.38704210016685825,-1862.0,-30.0,-28.0,-29.0,2.0,2.9371518793035394,-0.9086406235021025,-1833.0,16.0,-23.875,0.3333333333333349,-1528.0,-24.0,-23.0,-24.0,1.0,3.1428571428571432,2.267786838055363,-1504.0,17.0,49.484375,0.5037064999533274,3167.0,49.0,50.0,49.0,1.0,-1.9960899315738025,0.06253053994807224,3117.5,36.0,0.0
4.256190875,0.02773144737608846,272.396216,4.217701,4.300923,4.261232,0.08322200000000013,-1.331292655739129,0.06138527660577643,0.0014477575091575217,268.136904,1.4209375000000004,3.1114217230818797,90.94000000000003,-2.96,6.53,0.685,9.49,-1.428880731045158,0.20782860350438107,35.78875,0.004879481332205622,2290.48,35.77,35.79,35.79,0.01999999999999602,11.066666666648098,-3.6147844564564036,-0.00010989010988992356,-29.09375,0.38704210016685825,-1862.0,-30.0,-28.0,-29.0,2.0,2.9371518793035394,-0.9086406235021025,-1833.0,15.0,-23.875,0.3333333333333349,-1528.0,-24.0,-23.0,-24.0,1.0,3.1428571428571432,2.267786838055363,-1504.0,16.0,49.46875,0.5029673851018409,3166.0,49.0,50.0,49.0,1.0,-1.9843137254901961,0.1252448582170299,3116.5,35.0,0.0
4.25749121875,0.02784890219175723,272.479438,4.217701,4.300923,4.261232,0.08322200000000013,-1.329306349090668,0.02785893896971741,0.001454998397435903,268.22012600000005,1.4545312500000005,3.1282374618996687,93.09000000000003,-2.96,6.53,0.685,9.49,-1.4629149463161237,0.18146194739053403,35.7884375,0.005409777008110293,2290.46,35.77,35.79,35.79,0.01999999999999602,7.88474576269782,-3.1440015525903924,-0.0001350732600729896,-29.09375,0.38704210016685825,-1862.0,-30.0,-28.0,-29.0,2.0,2.9371518793035394,-0.9086406235021025,-1833.0,14.0,-23.875,0.3333333333333349,-1528.0,-24.0,-23.0,-24.0,1.0,3.1428571428571432,2.267786838055363,-1504.0,15.0,49.46875,0.5029673851018409,3166.0,49.0,50.0,49.0,1.0,-1.9843137254901961,0.1252448582170299,3116.0,34.0,0.0
4.2587915625,0.027904373601509345,272.56266,4.217701,4.300923,4.261232,0.08322200000000013,-1.3265866608972519,-0.006605846095592306,0.0014584287545787971,268.3033480000001,1.4787500000000005,3.140548177805872,94.64000000000003,-2.96,6.53,0.685,9.49,-1.4872564814062323,0.16249805524295277,35.788125,0.005875680708241509,2290.44,35.77,35.79,35.79,0.01999999999999602,5.770114942517694,-2.7874925905752956,-0.00015934065933996446,-29.09375,0.38704210016685825,-1862.0,-30.0,-28.0,-29.0,2.0,2.9371518793035394,-0.9086406235021025,-1833.0,13.0,-23.875,0.3333333333333349,-1528.0,-24.0,-23.0,-24.0,1.0,3.1428571428571432,2.267786838055363,-1504.0,14.0,49.46875,0.5029673851018409,3166.0,49.0,50.0,49.0,1.0,-1.9843137254901961,0.1252448582170299,3116.5,33.0,0.0
4.2600919062500004,0.027898231341653475,272.64588200000003,4.217701,4.300923,4.261232,0.08322200000000013,-1.3225877972305073,-0.04142980249413747,0.0014580485805861221,268.38657000000006,1.4889062500000003,3.1456728238737544,95.29000000000002,-2.96,6.53,0.685,9.49,-1.4974479362920599,0.15443656727138388,35.787812499999994,0.0062915139350168525,2290.4199999999996,35.77,35.79,35.79,0.01999999999999602,4.265664160392098,-2.5031308716061265,-0.00018269230769221018,-29.09375,0.38704210016685825,-1862.0,-30.0,-28.0,-29.0,2.0,2.9371518793035394,-0.9086406235021025,-1833.0,12.0,-23.875,0.3333333333333349,-1528.0,-24.0,-23.0,-24.0,1.0,3.1428571428571432,2.267786838055363,-1504.0,13.0,49.484375,0.5037064999533274,3167.0,49.0,50.0,49.0,1.0,-1.9960899315738025,0.06253053994807224,3117.5,32.0,0.0
4.26139225,0.02783043461725806,272.729104,4.217701,4.300923,4.261232,0.08322200000000013,-1.3172546978619417,-0.07605630793020712,0.0014538578754578764,268.4697920000001,1.4821875000000004,3.142504545964174,94.86000000000003,-2.96,6.53,0.685,9.49,-1.4909255536991677,0.15994868546295635,35.787499999999994,0.006666652736224554,2290.3999999999996,35.77,35.79,35.79,0.01999999999999602,3.1428571428498353,-2.2677868380529462,-0.00020512820512791848,-29.09375,0.38704210016685825,-1862.0,-30.0,-28.0,-29.0,2.0,2.9371518793035394,-0.9086406235021025,-1832.5,11.0,-23.875,0.3333333333333349,-1528.0,-24.0,-23.0,-24.0,1.0,3.1428571428571432,2.267786838055363,-1504.5,23.0,49.5,0.5039526306789632,3168.0,49.0,50.0,49.5,1.0,-2.0,0.0,3118.5,31.0,0.0
4.26269259375,0.027700530736283535,272.812326,4.217701,4.300923,4.261232,0.08322200000000013,-1.3110228346507709,-0.10990615941507233,0.0014458566391941884,268.5530140000001,1.4607812500000004,3.1339570324949486,93.49000000000002,-2.96,6.53,0.685,9.49,-1.4719672735413292,0.17838625017258317,35.787187499999995,0.007007635629646888,2290.3799999999997,35.77,35.79,35.79,0.01999999999999602,2.274747474741397,-2.067546244885072,-0.00022664835164820483,-29.078125,0.369671132267224,-1861.0,-30.0,-28.0,-29.0,2.0,3.700310605037533,-0.9347573798844768,-1831.5,10.0,-23.890625,0.31457643480294945,-1529.0,-24.0,-23.0,-24.0,1.0,4.265664160401003,2.503130871608794,-1505.5,22.0,49.515625,0.5037064999533278,3169.0,49.0,50.0,50.0,1.0,-1.9960899315738025,-0.06253053994807224,3119.5,30.0,0.0
4.2639929375,0.02750763981608302,272.895548,4.217701,4.300923,4.261232,0.08322200000000013,-1.3048878263664259,-0.14232926968290846,0.0014340448717949036,268.6362360000001,1.4309375000000004,3.125246768030972,91.58000000000003,-2.96,6.53,0.685,9.49,-1.4494396320982508,0.2054960277616716,35.786874999999995,0.007319237858682408,2290.3599999999997,35.77,35.79,35.79,0.01999999999999602,1.5851851851800909,-1.893458524810497,-0.0002472527472524403,-29.0625,0.35073618720608046,-1860.0,-30.0,-28.0,-29.0,2.0,4.655567117585848,-0.9385825460754044,-1830.5,9.0,-23.90625,0.293784825696503,-1530.0,-24.0,-23.0,-24.0,1.0,5.7701149425287355,2.7874925905782666,-1506.5,21.0,49.53125,0.5029673851018418,3170.0,49.0,50.0,50.0,1.0,-1.9843137254901961,-0.1252448582170299,3120.5,29.0,0.0
4.26529328125,0.02725042433658928,272.97877,4.217701,4.300923,4.261232,0.08322200000000013,-1.3005591631987297,-0.1725469485447966,0.0014184225732600845,268.7194580000001,1.3998437500000005,3.1202942943113308,89.59000000000003,-2.96,6.53,0.685,9.49,-1.4315214079597682,0.23486436722363196,35.7865625,0.007605071718769669,2290.34,35.77,35.79,35.79,0.01999999999999602,1.0257289879888392,-1.7394622697795685,-0.00026694139194119676,-29.046875,0.32996813217938836,-1859.0,-30.0,-28.0,-29.0,2.0,5.880718759242635,-0.9034502521177263,-1829.5,8.0,-23.921875,0.2704897087500433,-1531.0,-24.0,-23.0,-24.0,1.0,7.884745762711864,3.144001552593743,-1507.5,20.0,49.53125,0.5029673851018418,3170.0,49.0,50.0,50.0,1.0,-1.9843137254901961,-0.1252448582170299,3121.0,31.875,0.0
4.2665936250000005,0.02692704101623965,273.06199200000003,4.217701,4.300923,4.261232,0.08322200000000013,-1.3007303994730495,-0.19957645292919807,0.0013989897435897607,268.8026800000001,1.3728125000000004,3.12012996714587,87.86000000000003,-2.96,6.53,0.505,9.49,-1.4225571817906375,0.26041626412003466,35.78625,0.007867946121121938,2290.32,35.77,35.79,35.79,0.01999999999999602,0.5641025640989201,-1.601281538049165,-0.00028571428571411356,-29.03125,0.3069951656720642,-1858.0,-30.0,-28.0,-29.0,2.0,7.502049861495845,-0.7970231829882565,-1829.0,12.0,-23.9375,0.24397501823713455,-1532.0,-24.0,-23.0,-24.0,1.0,11.066666666666666,3.6147844564602556,-1508.0,19.0,49.53125,0.5029673851018418,3170.0,49.0,50.0,50.0,1.0,-1.9843137254901961,-0.1252448582170299,3120.5,35.142857142857146,0.0
4.26789396875,0.026535070799784607,273.145214,4.217701,4.300923,4.261232,0.08322200000000013,-1.309526188084158,-0.22212556587186666,0.001375746382783911,268.8859020000001,1.3492187500000004,3.124321541426707,86.35000000000002,-2.96,6.53,0.37,9.49,-1.4222949583879045,0.2810130642711007,35.7859375,0.008110093944197845,2290.3,35.77,35.79,35.79,0.01999999999999602,0.17797888385814176,-1.4757977110216003,-0.00030357142857114557,-29.03125,0.3069951656720642,-1858.0,-30.0,-28.0,-29.0,2.0,7.502049861495845,-0.7970231829882565,-1829.0,11.0,-23.9375,0.24397501823713455,-1532.0,-24.0,-23.0,-24.0,1.0,11.066666666666666,3.6147844564602556,-1508.0,18.0,49.515625,0.5037064999533278,3169.0,49.0,50.0,50.0,1.0,-1.9960899315738025,-0.06253053994807224,3119.5,34.142857142857146,0.0
4.2691943125,0.026071420366028483,273.228436,4.217701,4.300923,4.261232,0.08322200000000013,-1.3332346059407394,-0.23843776960048976,0.0013486924908425013,268.96912400000014,1.3239062500000005,3.1345644071855316,84.73000000000003,-2.96,6.53,0.165,9.49,-1.4304522026758804,0.29813002432714053,35.785625,0.008333322188907524,2290.28,35.77,35.79,35.79,0.01999999999999602,-0.14857142857405892,-1.360672102831768,-0.00032051282051279585,-29.03125,0.3069951656720642,-1858.0,-30.0,-28.0,-29.0,2.0,7.502049861495845,-0.7970231829882565,-1829.0,10.0,-23.9375,0.24397501823713455,-1532.0,-24.0,-23.0,-24.0,1.0,11.066666666666666,3.6147844564602556,-1508.0,17.0,49.5,0.5039526306789632,3168.0,49.0,50.0,49.5,1.0,-2.0,0.0,3118.5,33.142857142857146,0.0
4.2704946562499995,0.025532184993611522,273.31165799999997,4.217701,4.300923,4.261232,0.08322200000000013,-1.3815211034915906,-0.24605545039777904,0.0013178280677656007,269.0523460000001,1.2904687500000003,3.1573167378506453,82.59000000000002,-2.96,6.53,0.015,9.49,-1.4460642537276376,0.30778884287557007,35.7853125,0.008539114762441685,2290.26,35.77,35.79,35.79,0.01999999999999602,-0.42721088435597654,-1.2541088930563034,-0.0003365384615381889,-29.03125,0.3069951656720642,-1858.0,-30.0,-28.0,-29.0,2.0,7.502049861495845,-0.7970231829882565,-1829.0,9.0,-23.9375,0.24397501823713455,-1532.0,-24.0,-23.0,-24.0,1.0,11.066666666666666,3.6147844564602556,-1508.0,16.0,49.484375,0.5037064999533274,3167.0,49.0,50.0,49.0,1.0,-1.9960899315738025,0.06253053994807224,3117.5,32.142857142857146,0.0
4.271795,0.02491245701024073,273.39488,4.236906,4.300923,4.2746755,0.06401699999999977,-1.469489251006542,-0.24144406822095227,0.0012831531135531033,269.1259655000001,1.2435937500000005,3.2032401092327674,79.59000000000003,-3.3,6.53,0.015,9.83,-1.4502171333819225,0.29386437673498594,35.785000000000004,0.008728704969796356,2290.2400000000002,35.77,35.79,35.79,0.01999999999999602,-0.666666666668561,-1.154700538378021,-0.0003516483516481717,-29.03125,0.3069951656720642,-1858.0,-30.0,-28.0,-29.0,2.0,7.502049861495845,-0.7970231829882565,-1829.0,8.0,-23.9375,0.24397501823713455,-1532.0,-24.0,-23.0,-24.0,1.0,11.066666666666666,3.6147844564602556,-1508.0,15.0,49.46875,0.5029673851018409,3166.0,49.0,50.0,49.0,1.0,-1.9843137254901961,0.1252448582170299,3117.0,31.142857142857142,0.0
4.272915296875,0.02493073961981901,273.466579,4.236906,4.308605,4.288119,0.07169899999999974,-1.4204928233958372,-0.28153833622021757,0.001284326304945055,269.19382350000006,1.1810937500000005,3.280838606103981,75.59000000000003,-4.75,6.53,0.015,11.280000000000001,-1.3983139825437882,0.23715975623555333,35.784687500000004,0.008903127948925187,2290.2200000000003,35.77,35.79,35.79,0.01999999999999602,-0.873591989989086,-1.061323706514706,-0.00036584249084232676,-29.03125,0.3069951656720642,-1858.0,-30.0,-28.0,-29.0,2.0,7.502049861495845,-0.7970231829882565,-1829.0,7.0,-23.9375,0.24397501823713455,-1532.0,-24.0,-23.0,-24.0,1.0,11.066666666666666,3.6147844564602556,-1508.0,14.0,49.46875,0.5029673851018409,3166.0,49.0,50.0,49.0,1.0,-1.9843137254901961,0.1252448582170299,3117.0,30.142857142857142,0.0
4.27403559375,0.02489785268216787,273.538278,4.236906,4.308605,4.288119,0.07169899999999974,-1.3683020269584971,-0.3232820353976438,0.0012822165750915942,269.2655225000001,1.1032812500000004,3.3906089047568715,70.61000000000003,-5.98,6.53,0.015,12.510000000000002,-1.268243193448691,0.1378023401273161,35.784375000000004,0.00906325942482634,2290.2000000000003,35.77,35.79,35.79,0.01999999999999602,-1.0531400966197029,-0.9730672655986451,-0.00037912087912058513,-29.03125,0.3069951656720642,-1858.0,-30.0,-28.0,-29.0,2.0,7.502049861495845,-0.7970231829882565,-1828.5,6.0,-23.9375,0.24397501823713455,-1532.0,-24.0,-23.0,-24.0,1.0,11.066666666666666,3.6147844564602556,-1508.0,13.0,49.46875,0.5029673851018409,3166.0,49.0,50.0,49.0,1.0,-1.9843137254901961,0.1252448582170299,3117.0,29.142857142857142,0.0
4.275155890625,0.024813592743942875,273.609977,4.236906,4.308605,4.288119,0.07169899999999974,-1.311867708402962,-0.36633637448134365,0.0012768239239927062,269.33722150000006,1.0107812500000004,3.5263796375590633,64.69000000000003,-6.9,6.53,0.015,13.43,-1.0963633673832855,0.01809882959055259,35.784062500000005,0.009209844886319239,2290.1800000000003,35.77,35.79,35.79,0.01999999999999602,-1.2093567251473227,-0.8891812384728525,-0.0003914835164833645,-29.03125,0.3069951656720642,-1858.0,-30.0,-28.0,-29.0,2.0,7.502049861495845,-0.7970231829882565,-1828.0,21.0,-23.921875,0.2704897087500433,-1531.0,-24.0,-23.0,-24.0,1.0,7.884745762711864,3.144001552593743,-1507.5,12.0,49.46875,0.5029673851018409,3166.0,49.0,50.0,49.0,1.0,-1.9843137254901961,0.1252448582170299,3117.0,28.142857142857142,0.0
4.2762761875,0.024677433578659973,273.681676,4.236906,4.308605,4.288119,0.07169899999999974,-1.2503987775694168,-0.41038202607319785,0.0012681483516483799,269.4089205000001,0.9050000000000005,3.6777197041372145,57.92000000000003,-7.5,6.53,0.015,14.030000000000001,-0.9451516025130999,-0.0936210697630848,35.78375,0.009343521903436887,2290.16,35.77,35.79,35.79,0.01999999999999602,-1.3454545454554752,-0.8090398349550284,-0.00040293040293047037,-29.03125,0.3069951656720642,-1858.0,-30.0,-28.0,-29.0,2.0,7.502049861495845,-0.7970231829882565,-1828.5,20.0,-23.90625,0.293784825696503,-1530.0,-24.0,-23.0,-24.0,1.0,5.7701149425287355,2.7874925905782666,-1506.5,11.0,49.46875,0.5029673851018409,3166.0,49.0,50.0,49.0,1.0,-1.9843137254901961,0.1252448582170299,3117.0,27.142857142857142,0.0
4.277396484375,0.0244885095031056,273.753375,4.236906,4.308605,4.288119,0.07169899999999974,-1.183351459906278,-0.45508993272053094,0.001256189858058633,269.48061950000005,0.7882812500000005,3.834349991345037,50.45000000000003,-7.85,6.53,0.015,14.379999999999999,-0.8505936456327743,-0.18038267823642712,35.7834375,0.009464837430803352,2290.14,35.77,35.79,35.79,0.01999999999999602,-1.4640088593584581,-0.7321141582029138,-0.000413461538461428,-29.03125,0.3069951656720642,-1858.0,-30.0,-28.0,-29.0,2.0,7.502049861495845,-0.7970231829882565,-1829.0,19.0,-23.890625,0.31457643480294945,-1529.0,-24.0,-23.0,-24.0,1.0,4.265664160401003,2.503130871608794,-1505.5,10.0,49.484375,0.5037064999533274,3167.0,49.0,50.0,49.0,1.0,-1.9960899315738025,0.06253053994807224,3117.5,26.142857142857142,0.0
4.2785167812500005,0.02424558710004379,273.82507400000003,4.236906,4.308605,4.288119,0.07169899999999974,-1.1104616871735224,-0.5000882109099238,0.0012409484432234393,269.5523185,0.6654687500000004,3.9858121116606857,42.590000000000025,-7.95,6.53,0.015,14.48,-0.8217606203079795,-0.23580157553596637,35.783125,0.009574261377498249,2290.12,35.77,35.79,35.79,0.01999999999999602,-1.5670995671001822,-0.6579516949590676,-0.00042307692307678085,-29.03125,0.3069951656720642,-1858.0,-30.0,-28.0,-29.0,2.0,7.502049861495845,-0.7970231829882565,-1829.0,18.0,-23.875,0.3333333333333349,-1528.0,-24.0,-23.0,-24.0,1.0,3.1428571428571432,2.267786838055363,-1504.5,9.0,49.5,0.5039526306789632,3168.0,49.0,50.0,49.5,1.0,-2.0,0.0,3118.0,29.166666666666668,0.0
4.279637078125,0.023947023123042376,273.896773,4.236906,4.308605,4.288119,0.07169899999999974,-1.0318335319790484,-0.5449204045992464,0.0012224241071428562,269.6240175,0.5456250000000005,4.120102046429524,34.92000000000003,-7.95,6.53,-0.095,14.48,-0.8536998195903167,-0.2593472411064924,35.7828125,0.009672197349070178,2290.1,35.77,35.79,35.79,0.01999999999999602,-1.6564156945922166,-0.5861606481226279,-0.00043177655677641987,-29.03125,0.3069951656720642,-1858.0,-30.0,-28.0,-29.0,2.0,7.502049861495845,-0.7970231829882565,-1829.0,17.0,-23.875,0.3333333333333349,-1528.0,-24.0,-23.0,-24.0,1.0,3.1428571428571432,2.267786838055363,-1504.0,34.0,49.5,0.5039526306789632,3168.0,49.0,50.0,49.5,1.0,-2.0,0.0,3118.0,28.166666666666668,0.0
4.280757375,0.023590705067310775,273.968472,4.236906,4.308605,4.288119,0.07169899999999974,-0.9481106039196034,-0.5889882420315806,0.0012006168498168348,269.6957165,0.4407812500000004,4.224715752504658,28.210000000000026,-7.95,6.53,-0.30500000000000005,14.48,-0.9271796417742522,-0.25510426070499803,35.7825,0.009758991213012491,2290.08,35.77,35.79,35.79,0.01999999999999602,-1.7333333333337124,-0.516397779493772,-0.00043956043956014563,-29.03125,0.3069951656720642,-1858.0,-30.0,-28.0,-29.0,2.0,7.502049861495845,-0.7970231829882565,-1829.5,32.0,-23.875,0.3333333333333349,-1528.0,-24.0,-23.0,-24.0,1.0,3.1428571428571432,2.267786838055363,-1504.0,33.0,49.5,0.5039526306789632,3168.0,49.0,50.0,49.5,1.0,-2.0,0.0,3118.0,27.166666666666668,0.0
4.281877671875,0.023173969042392297,274.040171,4.236906,4.308605,4.288119,0.07169899999999974,-0.8607810814031058,-0.6314681339000169,0.0011755266712454207,269.7674155,0.36156250000000045,4.292859785605135,23.14000000000003,-7.95,6.53,-0.32999999999999996,14.48,-1.0060184777456438,-0.2348151363815195,35.7821875,0.009834937962871803,2290.06,35.77,35.79,35.79,0.01999999999999602,-1.7989743589746445,-0.44835883065376625,-0.00044642857142867235,-29.046875,0.2777281701735036,-1859.0,-30.0,-28.0,-29.0,2.0,9.203151332182257,-1.7252115625546152,-1830.5,31.0,-23.875,0.3333333333333349,-1528.0,-24.0,-23.0,-24.0,1.0,3.1428571428571432,2.267786838055363,-1504.0,32.0,49.484375,0.5037064999533274,3167.0,49.0,50.0,49.0,1.0,-1.9960899315738025,0.06253053994807224,3117.5,31.0,0.0
4.28299796875,0.022693486802831092,274.11187,4.236906,4.308605,4.288119,0.07169899999999974,-0.7727104519713381,-0.6711834601097619,0.0011471535714285875,269.8391145,0.31390625000000044,4.3270381442921675,20.09000000000003,-7.95,6.53,-0.32999999999999996,14.48,-1.0583498710953165,-0.21438355920995092,35.781875,0.00990028723184363,2290.04,35.77,35.79,35.79,0.01999999999999602,-1.8542510121459561,-0.38177085778505976,-0.0004523809523804672,-29.0625,0.24397501823710405,-1860.0,-30.0,-29.0,-29.0,1.0,11.066666666666666,-3.6147844564602556,-1831.0,30.0,-23.875,0.3333333333333349,-1528.0,-24.0,-23.0,-24.0,1.0,3.1428571428571432,2.267786838055363,-1504.0,31.0,49.46875,0.5029673851018409,3166.0,49.0,50.0,49.0,1.0,-1.9843137254901961,0.1252448582170299,3117.0,30.0,0.0
4.284118265625,0.022145109434147776,274.183569,4.236906,4.308605,4.288119,0.07169899999999974,-0.6890796563337442,-0.7064012518224797,0.001115497550366302,269.9108135,0.2965625000000004,4.337125527037286,18.980000000000025,-7.95,6.53,-0.32999999999999996,14.48,-1.0764770283382927,-0.20491176209807774,35.7815625,0.009955247717363048,2290.02,35.77,35.79,35.79,0.01999999999999602,-1.899899899900042,-0.31638599858382904,-0.00045741758241733837,-29.0625,0.24397501823710405,-1860.0,-30.0,-29.0,-29.0,1.0,11.066666666666666,-3.6147844564602556,-1831.0,29.0,-23.875,0.3333333333333349,-1528.0,-24.0,-23.0,-24.0,1.0,3.1428571428571432,2.267786838055363,-1504.0,30.0,49.484375,0.5037064999533274,3167.0,49.0,50.0,49.0,1.0,-1.9960899315738025,0.06253053994807224,3117.5,29.0,0.0
4.2852385625,0.021523648085724056,274.255268,4.236906,4.308605,4.288119,0.07169899999999974,-0.6190754131919327,-0.7344958945202964,0.00108055860805861,269.98251250000004,0.3021875000000004,4.334477310076057,19.340000000000025,-7.95,6.53,-0.32999999999999996,14.48,-1.071227788774536,-0.20835498852178064,35.78125,0.009999990712830958,2290.0,35.77,35.79,35.79,0.01999999999999602,-1.9365079365080269,-0.2519763153392162,-0.0004615384615383698,-29.0625,0.24397501823710405,-1860.0,-30.0,-29.0,-29.0,1.0,11.066666666666666,-3.6147844564602556,-1831.0,28.0,-23.875,0.3333333333333349,-1528.0,-24.0,-23.0,-24.0,1.0,3.1428571428571432,2.267786838055363,-1504.0,29.0,49.5,0.5039526306789632,3168.0,49.0,50.0,49.5,1.0,-2.0,0.0,3118.5,28.0,0.0
4.286358859375,0.02082256008451902,274.326967,4.236906,4.308605,4.288119,0.07169899999999974,-0.5790392333139671,-0.7513699916197022,0.001042336744505497,270.0542115,0.3218750000000004,4.326894070989509,20.600000000000026,-7.95,6.53,-0.31999999999999995,14.48,-1.0548991543500366,-0.22112295874585994,35.7809375,0.010034652893894136,2289.98,35.77,35.79,35.79,0.01999999999999602,-1.964532019704484,-0.1883294461721027,-0.0004647435897433101,-29.0625,0.24397501823710405,-1860.0,-30.0,-29.0,-29.0,1.0,11.066666666666666,-3.6147844564602556,-1831.0,27.0,-23.875,0.3333333333333349,-1528.0,-24.0,-23.0,-24.0,1.0,3.1428571428571432,2.267786838055363,-1504.0,28.0,49.515625,0.5037064999533278,3169.0,49.0,50.0,50.0,1.0,-1.9960899315738025,-0.06253053994807224,3119.5,27.0,0.0
4.28747915625,0.02003348737779608,274.398666,4.236906,4.308605,4.288119,0.07169899999999974,-0.5985926076672983,-0.7504106524587727,0.0010008319597069933,270.12591050000003,0.3490625000000004,4.318553078800967,22.340000000000025,-7.95,6.53,-0.020000000000000004,14.48,-1.0350034948904048,-0.23945065386144562,35.780625,0.010059338469638926,2289.96,35.77,35.79,35.79,0.01999999999999602,-1.9843137254902181,-0.12524485821689643,-0.00046703296703249134,-29.0625,0.24397501823710405,-1860.0,-30.0,-29.0,-29.0,1.0,11.066666666666666,-3.6147844564602556,-1830.5,26.0,-23.875,0.3333333333333349,-1528.0,-24.0,-23.0,-24.0,1.0,3.1428571428571432,2.267786838055363,-1504.5,53.0,49.53125,0.5029673851018418,3170.0,49.0,50.0,50.0,1.0,-1.9843137254901961,-0.1252448582170299,3120.0,30.166666666666668,0.0
4.288599453125,0.019145554341591233,274.470365,4.236906,4.308605,4.288119,0.07169899999999974,-0.7332133376164651,-0.7205051246205408,0.0009560442536630198,270.1976095,0.3825000000000004,4.311265052068038,24.480000000000025,-7.95,6.53,0.265,14.48,-1.0145551689727992,-0.2625706221448778,35.7803125,0.010074120780205306,2289.94,35.77,35.79,35.79,0.01999999999999602,-1.9960899315738083,-0.06253053994800563,-0.0004684065934062624,-29.046875,0.21304202581155396,-1859.0,-30.0,-29.0,-29.0,1.0,16.382513661202186,-4.287483371536522,-1829.5,25.0,-23.890625,0.31457643480294945,-1529.0,-24.0,-23.0,-24.0,1.0,4.265664160401003,2.503130871608794,-1505.5,52.0,49.515625,0.5037064999533278,3169.0,49.0,50.0,50.0,1.0,-1.9960899315738025,-0.06253053994807224,3119.5,33.57142857142857,0.0
4.296741578124999,0.015129079323271647,274.99146099999996,4.261232,4.311165,4.300923,0.04993300000000023,0.6716974473128854,-1.2418242308687646,0.0007225099587911694,270.7052625,1.0053125000000005,4.187827397764737,64.34000000000003,-7.95,6.53,1.7349999999999999,14.48,-0.5215671032597755,-0.6784469770059455,35.777187500000004,0.009672197348872928,2289.7400000000002,35.77,35.79,35.77,0.01999999999999602,-1.656415694592217,0.5861606481226272,-0.0004317765567762836,-29.046875,0.21304202581155396,-1859.0,-30.0,-29.0,-29.0,1.0,16.382513661202186,-4.287483371536522,-1829.5,52.0,-23.9375,0.24397501823713455,-1532.0,-24.0,-23.0,-24.0,1.0,11.066666666666666,3.6147844564602556,-1508.0,42.0,49.484375,0.5037064999533274,3167.0,49.0,50.0,49.0,1.0,-1.9960899315738025,0.06253053994807224,3117.5,32.142857142857146,0.0
4.29752178125,0.014545034974082233,275.041394,4.261232,4.311165,4.300923,0.04993300000000023,1.0067504918646515,-1.311462194927234,0.0006904713369963461,270.7551955,1.0520312500000002,4.16369043406578,67.33000000000001,-7.95,6.53,1.7349999999999999,14.48,-0.4410214658030349,-0.7139922611155061,35.776875000000004,0.009574261377276775,2289.7200000000003,35.77,35.79,35.77,0.01999999999999602,-1.5670995671001822,0.6579516949590678,-0.00042307692307673656,-29.0625,0.24397501823710405,-1860.0,-30.0,-29.0,-29.0,1.0,11.066666666666666,-3.6147844564602556,-1830.5,51.0,-23.9375,0.24397501823713455,-1532.0,-24.0,-23.0,-24.0,1.0,11.066666666666666,3.6147844564602556,-1508.0,41.0,49.46875,0.5029673851018409,3166.0,49.0,50.0,49.0,1.0,-1.9843137254901961,0.1252448582170299,3117.0,31.142857142857142,0.0
4.2983019843750006,0.013892094350587938,275.09132700000004,4.261232,4.311165,4.300923,0.04993300000000023,1.3710192332844553,-1.3748671274300588,0.0006561464056776717,270.8051285,1.0984375000000004,4.142916011141637,70.30000000000003,-7.95,6.53,1.7349999999999999,14.48,-0.3626011428209299,-0.7506386960938235,35.776562500000004,0.009464837430556856,2289.7000000000003,35.77,35.79,35.77,0.01999999999999602,-1.4640088593584575,0.7321141582029138,-0.0004134615384614304,-29.078125,0.270489708750015,-1861.0,-30.0,-29.0,-29.0,1.0,7.884745762711864,-3.144001552593743,-1831.5,50.0,-23.9375,0.24397501823713455,-1532.0,-24.0,-23.0,-24.0,1.0,11.066666666666666,3.6147844564602556,-1508.0,40.0,49.46875,0.5029673851018409,3166.0,49.0,50.0,49.0,1.0,-1.9843137254901961,0.1252448582170299,3117.0,30.142857142857142,0.0
4.2990821875,0.013160006470930456,275.14126,4.261232,4.311165,4.300923,0.04993300000000023,1.7463466240505703,-1.4242721852443898,0.0006195351648351708,270.85506150000003,1.1415625000000005,4.128085077697294,73.06000000000003,-7.95,6.53,1.7349999999999999,14.48,-0.29528876972356555,-0.7855740090338095,35.776250000000005,0.009343521903164436,2289.6800000000003,35.77,35.79,35.77,0.01999999999999602,-1.3454545454554756,0.8090398349550283,-0.0004029304029300331,-29.09375,0.2937848256964762,-1862.0,-30.0,-29.0,-29.0,1.0,5.7701149425287355,-2.7874925905782666,-1832.5,49.0,-23.9375,0.24397501823713455,-1532.0,-24.0,-23.0,-24.0,1.0,11.066666666666666,3.6147844564602556,-1508.0,39.0,49.46875,0.5029673851018409,3166.0,49.0,50.0,49.0,1.0,-1.9843137254901961,0.1252448582170299,3116.5,33.5,0.0
4.299862390625,0.012334686741265784,275.191193,4.261232,4.311165,4.300923,0.04993300000000023,2.078865157332972,-1.443930292540972,0.0005806376144688332,270.90499450000004,1.1771875000000005,4.121071084669318,75.34000000000003,-7.95,6.53,1.74,14.48,-0.24967223656961668,-0.8140990243930566,35.7759375,0.00920984488601987,2289.66,35.77,35.79,35.77,0.01999999999999602,-1.209356725147323,0.8891812384728522,-0.0003914835164833514,-29.09375,0.2937848256964762,-1862.0,-30.0,-29.0,-29.0,1.0,5.7701149425287355,-2.7874925905782666,-1833.0,48.0,-23.9375,0.24397501823713455,-1532.0,-24.0,-23.0,-24.0,1.0,11.066666666666666,3.6147844564602556,-1508.0,38.0,49.46875,0.5029673851018409,3166.0,49.0,50.0,49.0,1.0,-1.9843137254901961,0.1252448582170299,3116.0,32.5,0.0
4.30064259375,0.01139589687195864,275.241126,4.261232,4.311165,4.300923,0.04993300000000023,2.214924444730034,-1.3995295104766214,0.0005394537545787833,270.9549275,1.2003125000000003,4.121192217986922,76.82000000000002,-7.95,6.53,1.9649999999999999,14.48,-0.23138667568175553,-0.8308078844312383,35.775625,0.009063259424498796,2289.64,35.77,35.79,35.77,0.01999999999999602,-1.053140096619704,0.9730672655986449,-0.00037912087912089884,-29.09375,0.2937848256964762,-1862.0,-30.0,-29.0,-29.0,1.0,5.7701149425287355,-2.7874925905782666,-1833.0,47.0,-23.9375,0.24397501823713455,-1532.0,-24.0,-23.0,-24.0,1.0,11.066666666666666,3.6147844564602556,-1508.0,37.0,49.46875,0.5029673851018409,3166.0,49.0,50.0,49.0,1.0,-1.9843137254901961,0.1252448582170299,3116.0,31.5,0.0
4.301422796874999,0.010312694887778253,275.29105899999996,4.261232,4.311165,4.300923,0.04993300000000023,1.6876552578023558,-1.2077838537128422,0.0004959835851648533,271.0048605,1.2071875000000003,4.122880203281662,77.26000000000002,-7.95,6.53,1.9849999999999999,14.48,-0.23022169214968535,-0.8345239696335748,35.7753125,0.008903127948568032,2289.62,35.77,35.79,35.77,0.01999999999999602,-0.873591989989086,1.0613237065147063,-0.0003658424908423551,-29.09375,0.2937848256964762,-1862.0,-30.0,-29.0,-29.0,1.0,5.7701149425287355,-2.7874925905782666,-1833.0,46.0,-23.9375,0.24397501823713455,-1532.0,-24.0,-23.0,-24.0,1.0,11.066666666666666,3.6147844564602556,-1508.0,36.0,49.46875,0.5029673851018409,3166.0,49.0,50.0,49.0,1.0,-1.9843137254901961,0.1252448582170299,3116.0,30.5,0.0
4.3022029999999996,0.009033278917504484,275.34099199999997,4.288119,4.311165,4.3047640000000005,0.0230459999999999,-1.1603074716361723,-0.6297995059889612,0.00045022710622711216,271.04135,1.1956250000000004,4.117239356730653,76.52000000000002,-7.95,6.53,1.9849999999999999,14.48,-0.22579369353958256,-0.8314709082786387,35.775,0.008728704969407964,2289.6,35.77,35.79,35.77,0.01999999999999602,-0.6666666666685606,1.1547005383780213,-0.00035164835164834416,-29.09375,0.2937848256964762,-1862.0,-30.0,-29.0,-29.0,1.0,5.7701149425287355,-2.7874925905782666,-1833.0,45.0,-23.9375,0.24397501823713455,-1532.0,-24.0,-23.0,-24.0,1.0,11.066666666666666,3.6147844564602556,-1508.0,35.0,49.46875,0.5029673851018409,3166.0,49.0,50.0,49.0,1.0,-1.9843137254901961,0.1252448582170299,3116.0,29.5,0.0
4.30252309375,0.008888084739791129,275.361478,4.288119,4.311165,4.308605,0.0230459999999999,-1.0406439487848878,-0.700481022672598,0.00043850242673991127,271.06311600000004,1.1650000000000005,4.096257292883434,74.56000000000003,-7.95,6.53,1.9849999999999999,14.48,-0.20451995273367807,-0.832528317981238,35.7746875,0.008539114762020034,2289.58,35.77,35.79,35.77,0.01999999999999602,-0.42721088435597565,1.2541088930563025,-0.0003365384615383678,-29.09375,0.2937848256964762,-1862.0,-30.0,-29.0,-29.0,1.0,5.7701149425287355,-2.7874925905782666,-1833.0,44.0,-23.9375,0.24397501823713455,-1532.0,-24.0,-23.0,-24.0,1.0,11.066666666666666,3.6147844564602556,-1508.0,34.0,49.453125,0.5017331074496719,3165.0,49.0,50.0,49.0,1.0,-1.9645320197044336,0.18832944617230335,3115.5,33.0,0.0
4.3028431875,0.008728562308061677,275.381964,4.288119,4.311165,4.308605,0.0230459999999999,-0.9030961096975854,-0.7732203249475689,0.00042583974358974383,271.083602,1.1153125000000006,4.056759974175469,71.38000000000004,-7.95,6.53,1.9849999999999999,14.48,-0.1667537901726237,-0.8448727347184432,35.774375,0.008333322188450351,2289.56,35.77,35.79,35.77,0.01999999999999602,-0.1485714285740607,1.3606721028317674,-0.0003205128205126206,-29.09375,0.2937848256964762,-1862.0,-30.0,-29.0,-29.0,1.0,5.7701149425287355,-2.7874925905782666,-1833.0,43.0,-23.9375,0.24397501823713455,-1532.0,-24.0,-23.0,-24.0,1.0,11.066666666666666,3.6147844564602556,-1508.0,33.0,49.4375,0.4999999999999927,3164.0,49.0,50.0,49.0,1.0,-1.9365079365079365,0.25197631533948484,3114.5,32.0,0.0
4.30316328125,0.008553910034215474,275.40245,4.288119,4.311165,4.308605,0.0230459999999999,-0.7453325725051725,-0.8482723508218337,0.0004122390567765528,271.104088,1.0471875000000004,4.002337598201444,67.02000000000002,-7.95,6.53,1.9849999999999999,14.48,-0.12072956585880723,-0.8655788787012714,35.7740625,0.008110093943702289,2289.54,35.77,35.79,35.77,0.01999999999999602,0.17797888385814398,1.4757977110215998,-0.0003035714285712686,-29.109375,0.31457643480292363,-1863.0,-30.0,-29.0,-29.0,1.0,4.265664160401003,-2.503130871608794,-1833.5,50.5,-23.921875,0.2704897087500433,-1531.0,-24.0,-23.0,-24.0,1.0,7.884745762711864,3.144001552593743,-1507.5,32.0,49.4375,0.4999999999999927,3164.0,49.0,50.0,49.0,1.0,-1.9365079365079365,0.25197631533948484,3114.0,31.0,0.0
4.303483375,0.00836318008086155,275.422936,4.288119,4.311165,4.308605,0.0230459999999999,-0.564527809034503,-0.925895419442251,0.00039770036630039184,271.12457399999994,0.9615625000000003,3.9413317460620574,61.54000000000002,-7.95,6.41,1.725,14.36,-0.07895031612756753,-0.8837659477466042,35.77375,0.007867946120584534,2289.52,35.77,35.79,35.77,0.01999999999999602,0.5641025640989201,1.6012815380491638,-0.00028571428571402005,-29.125,0.33333333333330994,-1864.0,-30.0,-29.0,-29.0,1.0,3.1428571428571432,-2.267786838055363,-1834.5,49.5,-23.90625,0.293784825696503,-1530.0,-24.0,-23.0,-24.0,1.0,5.7701149425287355,2.7874925905782666,-1506.5,31.0,49.4375,0.4999999999999927,3164.0,49.0,50.0,49.0,1.0,-1.9365079365079365,0.25197631533948484,3114.5,30.0,0.0
4.30380346875,0.008155244480707905,275.443422,4.288119,4.311165,4.308605,0.0230459999999999,-0.35726204311447907,-1.0063373399812132,0.00038222367216117075,271.14506,0.8601562500000004,3.8819674655703564,55.050000000000026,-7.95,6.24,1.495,14.190000000000001,-0.056559679916893035,-0.8904699999837945,35.7734375,0.0076050717181860295,2289.5,35.77,35.79,35.77,0.01999999999999602,1.0257289879888392,1.7394622697795679,-0.0002669413919411666,-29.125,0.33333333333330994,-1864.0,-30.0,-29.0,-29.0,1.0,3.1428571428571432,-2.267786838055363,-1835.0,48.5,-23.90625,0.293784825696503,-1530.0,-24.0,-23.0,-24.0,1.0,5.7701149425287355,2.7874925905782666,-1506.0,45.5,49.453125,0.5017331074496719,3165.0,49.0,50.0,49.0,1.0,-1.9645320197044336,0.18832944617230335,3115.5,29.0,0.0
4.3041235625,0.007928749668077825,275.463908,4.288119,4.311165,4.308605,0.0230459999999999,-0.11941287301076997,-1.0898080281358615,0.0003658089743589796,271.165546,0.7471875000000004,3.8277451892862295,47.82000000000003,-7.95,6.13,1.44,14.08,-0.05895084222428526,-0.885809710693799,35.77312500000001,0.007319237858047236,2289.4800000000005,35.77,35.79,35.77,0.01999999999999602,1.58518518518009,1.8934585248104974,-0.00024725274725244514,-29.125,0.33333333333330994,-1864.0,-30.0,-29.0,-29.0,1.0,3.1428571428571432,-2.267786838055363,-1835.0,47.5,-23.90625,0.293784825696503,-1530.0,-24.0,-23.0,-24.0,1.0,5.7701149425287355,2.7874925905782666,-1506.0,44.5,49.46875,0.5029673851018409,3166.0,49.0,50.0,49.0,1.0,-1.9843137254901961,0.1252448582170299,3116.5,28.0,0.0
4.30444365625,0.007682054239700585,275.484394,4.288119,4.311165,4.308605,0.0230459999999999,0.15393933688878692,-1.1764267524036833,0.0003484562728937441,271.186032,0.6282812500000003,3.775723857722976,40.21000000000002,-7.95,6.05,1.33,14.0,-0.07557631522644614,-0.8773139857589972,35.77281250000001,0.007007635628953612,2289.4600000000005,35.77,35.79,35.77,0.01999999999999602,2.2747474747413987,2.0675462448850723,-0.00022664835164806194,-29.125,0.33333333333330994,-1864.0,-30.0,-29.0,-29.0,1.0,3.1428571428571432,-2.267786838055363,-1835.0,46.5,-23.90625,0.293784825696503,-1530.0,-24.0,-23.0,-24.0,1.0,5.7701149425287355,2.7874925905782666,-1506.0,43.5,49.46875,0.5029673851018409,3166.0,49.0,50.0,49.0,1.0,-1.9843137254901961,0.1252448582170299,3117.0,31.125,0.0
4.30476375,0.007413141754215237,275.50488,4.288119,4.311165,4.308605,0.0230459999999999,0.4685308098139789,-1.2661204402517294,0.00033016556776557863,271.20651799999996,0.5110937500000003,3.720767593267792,32.71000000000002,-7.95,5.93,1.185,13.879999999999999,-0.08706032167672628,-0.8737862249890187,35.77250000000001,0.006666652735464431,2289.4400000000005,35.77,35.79,35.77,0.01999999999999602,3.142857142849838,2.2677868380529467,-0.0002051282051281024,-29.125,0.33333333333330994,-1864.0,-30.0,-29.0,-29.0,1.0,3.1428571428571432,-2.267786838055363,-1835.0,45.5,-23.90625,0.293784825696503,-1530.0,-24.0,-23.0,-24.0,1.0,5.7701149425287355,2.7874925905782666,-1506.0,42.5,49.46875,0.5029673851018409,3166.0,49.0,50.0,49.0,1.0,-1.9843137254901961,0.1252448582170299,3117.0,30.125,0.0
4.30508384375,0.00711949515613341,275.525366,4.288119,4.311165,4.308605,0.0230459999999999,0.8306962436771399,-1.3584242815212293,0.0003109368589743424,271.22700399999997,0.4017187500000004,3.661357001744422,25.710000000000026,-7.95,5.68,1.0750000000000002,13.629999999999999,-0.08155418237418877,-0.8798160973395045,35.77218750000001,0.006291513934178146,2289.4200000000005,35.77,35.79,35.77,0.01999999999999602,4.2656641603920935,2.5031308716061256,-0.0001826923076920517,-29.125,0.33333333333330994,-1864.0,-30.0,-29.0,-29.0,1.0,3.1428571428571432,-2.267786838055363,-1835.0,44.5,-23.90625,0.293784825696503,-1530.0,-24.0,-23.0,-24.0,1.0,5.7701149425287355,2.7874925905782666,-1506.0,41.5,49.46875,0.5029673851018409,3166.0,49.0,50.0,49.0,1.0,-1.9843137254901961,0.1252448582170299,3117.0,29.125,0.0
4.3054039374999995,0.00679790991202847,275.54585199999997,4.288119,4.311165,4.308605,0.0230459999999999,1.2464851795428258,-1.452078448011272,0.00029077014652011894,271.24748999999997,0.3032812500000004,3.601393493388761,19.410000000000025,-7.95,5.33,0.98,13.280000000000001,-0.059486114350490116,-0.8925624597913757,35.771875,0.005875680707307644,2289.4,35.77,35.79,35.77,0.01999999999999602,5.770114942517685,2.7874925905752947,-0.0001593406593404532,-29.125,0.33333333333330994,-1864.0,-30.0,-29.0,-29.0,1.0,3.1428571428571432,-2.267786838055363,-1835.0,43.5,-23.90625,0.293784825696503,-1530.0,-24.0,-23.0,-24.0,1.0,5.7701149425287355,2.7874925905782666,-1506.0,40.5,49.46875,0.5029673851018409,3166.0,49.0,50.0,49.0,1.0,-1.9843137254901961,0.1252448582170299,3116.5,32.142857142857146,0.0
4.30572403125,0.006444204710407084,275.566338,4.288119,4.311165,4.308605,0.0230459999999999,1.7189444829124643,-1.5441746573230668,0.00026966543040294125,271.267976,0.21406250000000043,3.5451772377135478,13.700000000000028,-7.95,4.94,0.8200000000000001,12.89,-0.02935790942279315,-0.9053080785564872,35.7715625,0.0054097770070571155,2289.38,35.77,35.79,35.77,0.01999999999999602,7.884745762697813,3.144001552590389,-0.00013507326007303867,-29.125,0.33333333333330994,-1864.0,-30.0,-29.0,-29.0,1.0,3.1428571428571432,-2.267786838055363,-1835.0,42.5,-23.90625,0.293784825696503,-1530.0,-24.0,-23.0,-24.0,1.0,5.7701149425287355,2.7874925905782666,-1506.0,39.5,49.46875,0.5029673851018409,3166.0,49.0,50.0,49.0,1.0,-1.9843137254901961,0.1252448582170299,3116.0,31.142857142857142,0.0
4.306044125,0.006052751177021971,275.586824,4.288119,4.311165,4.308605,0.0230459999999999,2.2401746722589984,-1.6282345624058672,0.00024762271062269987,271.288462,0.12890625000000042,3.494956510018587,8.250000000000027,-7.95,4.61,0.73,12.56,-0.0018774436859638755,-0.9109076792287734,35.77125,0.004879481330994861,2289.36,35.77,35.79,35.77,0.01999999999999602,11.066666666648102,3.6147844564564044,-0.0001098901098898415,-29.125,0.33333333333330994,-1864.0,-30.0,-29.0,-29.0,1.0,3.1428571428571432,-2.267786838055363,-1835.0,41.5,-23.90625,0.293784825696503,-1530.0,-24.0,-23.0,-24.0,1.0,5.7701149425287355,2.7874925905782666,-1506.0,38.5,49.46875,0.5029673851018409,3166.0,49.0,50.0,49.0,1.0,-1.9843137254901961,0.1252448582170299,3116.5,30.142857142857142,0.0
4.30636421875,0.005615660829856,275.60731,4.288119,4.311165,4.308605,0.0230459999999999,2.7673643255195346,-1.6895051975422395,0.00022464198717950422,271.308948,0.040937500000000404,3.450953270068877,2.620000000000026,-7.95,4.41,0.635,12.36,0.011403488168339138,-0.9047222508085923,35.7709375,0.004260818718809321,2289.34,35.77,35.79,35.77,0.01999999999999602,16.382513661204896,4.287483371536999,-8.379120879117715e-05,-29.125,0.33333333333330994,-1864.0,-30.0,-29.0,-29.0,1.0,3.1428571428571432,-2.267786838055363,-1835.0,40.5,-23.90625,0.293784825696503,-1530.0,-24.0,-23.0,-24.0,1.0,5.7701149425287355,2.7874925905782666,-1506.0,37.5,49.484375,0.5037064999533274,3167.0,49.0,50.0,49.0,1.0,-1.9960899315738025,0.06253053994807224,3117.5,29.142857142857142,0.0
4.3066843125,0.005121261913312693,275.627796,4.288119,4.311165,4.308605,0.0230459999999999,3.1436600658523206,-1.692041792776075,0.00020072326007327277,271.329434,-0.056718749999999596,3.4135835356030677,-3.629999999999974,-7.95,4.32,0.525,12.27,-0.003333105450299634,-0.88445517351826,35.770625,0.0035073353918853444,2289.32,35.77,35.79,35.77,0.01999999999999602,27.03225806447483,5.388159060797499,-5.6776556776284006e-05,-29.125,0.33333333333330994,-1864.0,-30.0,-29.0,-29.0,1.0,3.1428571428571432,-2.267786838055363,-1835.0,39.5,-23.90625,0.293784825696503,-1530.0,-24.0,-23.0,-24.0,1.0,5.7701149425287355,2.7874925905782666,-1506.0,36.5,49.5,0.5039526306789632,3168.0,49.0,50.0,49.5,1.0,-2.0,0.0,3118.0,32.833333333333336,0.0
4.30700440625,0.00455091506152834,275.648282,4.288119,4.311165,4.308605,0.0230459999999999,2.7925802311345285,-1.536950245632069,0.00017586652930406423,271.34992,-0.1684374999999996,3.3849513929326265,-10.779999999999974,-7.95,4.31,0.455,12.26,-0.058280575411445046,-0.8506381198523095,35.7703125,0.002499962849598818,2289.3,35.77,35.79,35.77,0.01999999999999602,59.0158730158758,7.811265775524303,-2.8846153846061275e-05,-29.125,0.33333333333330994,-1864.0,-30.0,-29.0,-29.0,1.0,3.1428571428571432,-2.267786838055363,-1835.0,38.5,-23.90625,0.293784825696503,-1530.0,-24.0,-23.0,-24.0,1.0,5.7701149425287355,2.7874925905782666,-1506.0,35.5,49.484375,0.5037064999533274,3167.0,49.0,50.0,49.0,1.0,-1.9960899315738025,0.06253053994807224,3117.5,35.857142857142854,0.0
4.30746453125,0.003797346705321711,275.67773,4.300923,4.311165,4.308605,0.010241999999999862,-0.6304430001635932,-0.9718913928905045,0.0001442387820512873,271.372326,-0.4398437499999996,3.364775278319184,-28.149999999999974,-7.95,4.26,0.255,12.21,-0.2885717228267657,-0.7622159146072217,35.770625,0.004999981424924351,2289.32,35.77,35.81,35.77,0.03999999999999915,59.015873015831765,7.81126577552007,5.7692307692705823e-05,-29.125,0.33333333333330994,-1864.0,-30.0,-29.0,-29.0,1.0,3.1428571428571432,-2.267786838055363,-1835.0,36.5,-23.90625,0.293784825696503,-1530.0,-24.0,-23.0,-24.0,1.0,5.7701149425287355,2.7874925905782666,-1506.0,33.5,49.46875,0.5029673851018409,3166.0,49.0,50.0,49.0,1.0,-1.9843137254901961,0.1252448582170299,3117.0,33.857142857142854,0.0
4.3076045625,0.0037166765403216493,275.686692,4.300923,4.311165,4.308605,0.010241999999999862,-0.4175729706511957,-1.0588907536557728,0.00013799542124542724,271.381288,-0.5953124999999996,3.3740291813562444,-38.09999999999997,-7.95,4.21,0.14,12.16,-0.43107710988090275,-0.720050794300225,35.77125,0.007014710504102167,2289.36,35.77,35.81,35.77,0.03999999999999915,27.032258064497565,5.388159060800662,0.00011355311355347972,-29.125,0.33333333333330994,-1864.0,-30.0,-29.0,-29.0,1.0,3.1428571428571432,-2.267786838055363,-1835.0,35.5,-23.90625,0.293784825696503,-1530.0,-24.0,-23.0,-24.0,1.0,5.7701149425287355,2.7874925905782666,-1506.0,32.5,49.46875,0.5029673851018409,3166.0,49.0,50.0,49.0,1.0,-1.9843137254901961,0.1252448582170299,3117.0,32.857142857142854,0.0
4.30774459375,0.003628730770993193,275.695654,4.300923,4.311165,4.308605,0.010241999999999862,-0.17086900802488936,-1.150660315643681,0.00013134171245423668,271.39025,-0.7560937499999997,3.386558217789385,-48.38999999999998,-7.95,4.15,-0.010000000000000002,12.100000000000001,-0.5676133851434542,-0.682090548190523,35.771875,0.008521670133811018,2289.4,35.77,35.81,35.77,0.03999999999999915,16.382513661191155,4.287483371534593,0.00016758241758255764,-29.125,0.33333333333330994,-1864.0,-30.0,-29.0,-29.0,1.0,3.1428571428571432,-2.267786838055363,-1835.0,34.5,-23.90625,0.293784825696503,-1530.0,-24.0,-23.0,-24.0,1.0,5.7701149425287355,2.7874925905782666,-1506.0,31.5,49.484375,0.5037064999533274,3167.0,49.0,50.0,49.0,1.0,-1.9960899315738025,0.06253053994807224,3117.5,31.857142857142858,0.0
4.307884625000001,0.0035329661064528056,275.70461600000004,4.300923,4.311165,4.308605,0.010241999999999862,0.11646969638939098,-1.2479776161506533,0.00012427765567762637,271.399212,-0.9132812499999996,3.3886941131703727,-58.449999999999974,-7.95,4.05,-0.09,12.0,-0.6920975641701501,-0.6452766387930825,35.77250000000001,0.009758991212669493,2289.4400000000005,35.77,35.81,35.77,0.03999999999999915,11.066666666659371,3.6147844564587417,0.00021978021978013413,-29.125,0.33333333333330994,-1864.0,-30.0,-29.0,-29.0,1.0,3.1428571428571432,-2.267786838055363,-1835.0,33.5,-23.90625,0.293784825696503,-1530.0,-24.0,-23.0,-24.0,1.0,5.7701149425287355,2.7874925905782666,-1506.0,30.5,49.5,0.5039526306789632,3168.0,49.0,50.0,49.5,1.0,-2.0,0.0,3118.0,35.666666666666664,0.0
4.30802465625,0.00342872746195312,275.713578,4.300923,4.311165,4.308605,0.010241999999999862,0.4533223797167105,-1.3517677781876236,0.00011680325091574643,271.40817400000003,-1.0564062499999995,3.36912186155864,-67.60999999999997,-7.95,3.81,-0.24,11.76,-0.7906234261786249,-0.6101279400145388,35.77312500000001,0.010819579766089915,2289.4800000000005,35.77,35.81,35.77,0.03999999999999915,7.8847457627067925,3.1440015525925324,0.00027014652014675273,-29.125,0.33333333333330994,-1864.0,-30.0,-29.0,-29.0,1.0,3.1428571428571432,-2.267786838055363,-1835.0,32.5,-23.90625,0.293784825696503,-1530.0,-24.0,-23.0,-24.0,1.0,5.7701149425287355,2.7874925905782666,-1506.0,29.5,49.484375,0.5037064999533274,3167.0,49.0,50.0,49.0,1.0,-1.9960899315738025,0.06253053994807224,3117.5,38.42857142857143,0.0
4.3081646875,0.003315215604658971,275.72254,4.300923,4.311165,4.308605,0.010241999999999862,0.8514759726852774,-1.4631356515306138,0.00010891849816849744,271.417136,-1.1757812499999996,3.329070514580342,-75.24999999999997,-7.95,3.37,-0.445,11.32,-0.84037143133378,-0.5831672520717736,35.77375000000001,0.0117513851246122,2289.5200000000004,35.77,35.81,35.77,0.03999999999999915,5.770114942525124,2.7874925905772945,0.0003186813186812174,-29.125,0.33333333333330994,-1864.0,-30.0,-29.0,-29.0,1.0,3.1428571428571432,-2.267786838055363,-1835.0,31.5,-23.90625,0.293784825696503,-1530.0,-24.0,-23.0,-24.0,1.0,5.7701149425287355,2.7874925905782666,-1506.0,28.5,49.46875,0.5029673851018409,3166.0,49.0,50.0,49.0,1.0,-1.9843137254901961,0.1252448582170299,3116.5,37.42857142857143,0.0
4.30830471875,0.003191441210552546,275.731502,4.300923,4.311165,4.308605,0.010241999999999862,1.3268779554779133,-1.5833989888512943,0.00010062339743590376,271.426098,-1.2648437499999996,3.281432126461254,-80.94999999999997,-7.95,3.23,-0.565,11.18,-0.838212741081251,-0.5700761569576117,35.774375000000006,0.012583050011244483,2289.5600000000004,35.77,35.81,35.77,0.03999999999999915,4.265664160398421,2.5031308716080205,0.00036538461538493047,-29.125,0.33333333333330994,-1864.0,-30.0,-29.0,-29.0,1.0,3.1428571428571432,-2.267786838055363,-1835.0,30.5,-23.90625,0.293784825696503,-1530.0,-24.0,-23.0,-24.0,1.0,5.7701149425287355,2.7874925905782666,-1506.0,27.5,49.46875,0.5029673851018409,3166.0,49.0,50.0,49.0,1.0,-1.9843137254901961,0.1252448582170299,3116.0,36.42857142857143,0.0
4.30844475,0.003056157635572444,275.740464,4.300923,4.311165,4.308605,0.010241999999999862,1.9015771357957654,-1.7141108010919033,9.191794871793599e-05,271.43506,-1.3215624999999995,3.2424262024829824,-84.57999999999997,-7.95,3.23,-0.6599999999999999,11.18,-0.811364592947942,-0.5678977228217977,35.775000000000006,0.013333326367803005,2289.6000000000004,35.77,35.81,35.77,0.03999999999999915,3.1428571428553154,2.267786838054759,0.0004102564102564041,-29.125,0.33333333333330994,-1864.0,-30.0,-29.0,-29.0,1.0,3.1428571428571432,-2.267786838055363,-1835.0,29.5,-23.90625,0.293784825696503,-1530.0,-24.0,-23.0,-24.0,1.0,5.7701149425287355,2.7874925905782666,-1506.0,26.5,49.46875,0.5029673851018409,3166.0,49.0,50.0,49.0,1.0,-1.9843137254901961,0.1252448582170299,3116.0,35.42857142857143,0.0
4.30858478125,0.002907758928201975,275.749426,4.300923,4.311165,4.308605,0.010241999999999862,2.6068069291529348,-1.8570352571811515,8.280215201466356e-05,271.4440220000001,-1.3481249999999996,3.2215129419105897,-86.27999999999997,-7.95,3.23,-0.6599999999999999,11.18,-0.7909125318021113,-0.569835225191002,35.775625000000005,0.014015291137952671,2289.6400000000003,35.77,35.81,35.77,0.03999999999999915,2.274747474746219,2.0675462448868203,0.00045329670329679407,-29.125,0.33333333333330994,-1864.0,-30.0,-29.0,-29.0,1.0,3.1428571428571432,-2.267786838055363,-1835.0,28.5,-23.90625,0.293784825696503,-1530.0,-24.0,-23.0,-24.0,1.0,5.7701149425287355,2.7874925905782666,-1506.0,25.5,49.453125,0.5017331074496719,3165.0,49.0,50.0,49.0,1.0,-1.9645320197044336,0.18832944617230335,3115.5,37.75,0.0
4.3087248125,0.002744118159559595,275.758388,4.300923,4.311165,4.308605,0.010241999999999862,3.487990156989187,-2.013972135701853,7.327600732600994e-05,271.4529840000001,-1.3489062499999998,3.22084437178183,-86.32999999999998,-7.95,3.23,-0.6599999999999999,11.18,-0.7902340447070273,-0.5699854215059257,35.776250000000005,0.014638494749773513,2289.6800000000003,35.77,35.81,35.77,0.03999999999999915,1.5851851851843746,1.8934585248121938,0.000494505494505488,-29.125,0.33333333333330994,-1864.0,-30.0,-29.0,-29.0,1.0,3.1428571428571432,-2.267786838055363,-1835.0,27.5,-23.90625,0.293784825696503,-1530.0,-24.0,-23.0,-24.0,1.0,5.7701149425287355,2.7874925905782666,-1506.0,24.5,49.4375,0.4999999999999927,3164.0,49.0,50.0,49.0,1.0,-1.9365079365079365,0.25197631533948484,3115.0,36.75,0.0
4.30886484375,0.0025623167174896773,275.76735,4.300923,4.311165,4.308605,0.010241999999999862,4.612908409952566,-2.18610849582272,6.33395146519873e-05,271.46194600000007,-1.3273437499999996,3.2407647746144037,-84.94999999999997,-7.95,3.23,-0.6599999999999999,11.18,-0.8074240286723353,-0.5624266551893012,35.776875,0.01521016175466492,2289.72,35.77,35.81,35.77,0.03999999999999915,1.0257289879926788,1.7394622697812245,0.0005338827838829607,-29.140625,0.3503824441133448,-1865.0,-30.0,-29.0,-29.0,1.0,2.2747474747474747,-2.067546244887276,-1835.5,34.666666666666664,-23.90625,0.293784825696503,-1530.0,-24.0,-23.0,-24.0,1.0,5.7701149425287355,2.7874925905782666,-1506.0,23.5,49.4375,0.4999999999999927,3164.0,49.0,50.0,49.0,1.0,-1.9365079365079365,0.25197631533948484,3115.0,35.75,0.0
4.309004874999999,0.002358158062099593,275.77631199999996,4.300923,4.311165,4.308605,0.010241999999999862,6.0843124390896985,-2.371829094547549,5.299267399270003e-05,271.47090800000007,-1.2845312499999995,3.2836400290309786,-82.20999999999997,-7.95,3.28,-0.6599999999999999,11.23,-0.831614416321425,-0.5388558864591768,35.7775,0.01573590994742104,2289.76,35.77,35.81,35.77,0.03999999999999915,0.5641025641023827,1.601281538050786,0.0005714285714287492,-29.15625,0.36596252735567775,-1866.0,-30.0,-29.0,-29.0,1.0,1.5851851851851855,-1.893458524812515,-1836.5,33.666666666666664,-23.90625,0.293784825696503,-1530.0,-24.0,-23.0,-24.0,1.0,5.7701149425287355,2.7874925905782666,-1506.0,22.5,49.4375,0.4999999999999927,3164.0,49.0,50.0,49.0,1.0,-1.9365079365079365,0.25197631533948484,3115.0,34.75,0.0
4.309144906249999,0.002125208678925304,275.78527399999996,4.300923,4.311165,4.308605,0.010241999999999862,8.052722612058572,-2.558927339613816,4.223548534799864e-05,271.47987000000006,-1.2189062499999996,3.352191473288467,-78.00999999999998,-7.95,4.26,-0.6599999999999999,12.21,-0.846676352367195,-0.4943119806384484,35.778125,0.016220205064978854,2289.8,35.77,35.81,35.77,0.03999999999999915,0.17797888386127703,1.4757977110231935,0.0006071428571429674,-29.15625,0.36596252735567775,-1866.0,-30.0,-29.0,-29.0,1.0,1.5851851851851855,-1.893458524812515,-1837.0,32.666666666666664,-23.90625,0.293784825696503,-1530.0,-24.0,-23.0,-24.0,1.0,5.7701149425287355,2.7874925905782666,-1506.0,21.5,49.4375,0.4999999999999927,3164.0,49.0,50.0,49.0,1.0,-1.9365079365079365,0.25197631533948484,3115.0,33.75,0.0
4.3092849375,0.0018526398490072101,275.794236,4.300923,4.311165,4.308605,0.010241999999999862,10.66966758566926,-2.6922822428729205,3.10679487179647e-05,271.48883200000006,-1.1287499999999995,3.442205134859482,-72.23999999999997,-7.95,5.05,-0.565,13.0,-0.8436620797104233,-0.43916377942140916,35.77875,0.01666666109432059,2289.84,35.77,35.81,35.77,0.03999999999999915,-0.1485714285712083,1.360672102833339,0.0006410256410255467,-29.15625,0.36596252735567775,-1866.0,-30.0,-29.0,-29.0,1.0,1.5851851851851855,-1.893458524812515,-1837.0,31.666666666666668,-23.90625,0.293784825696503,-1530.0,-24.0,-23.0,-24.0,1.0,5.7701149425287355,2.7874925905782666,-1506.0,20.5,49.4375,0.4999999999999927,3164.0,49.0,50.0,49.0,1.0,-1.9365079365079365,0.25197631533948484,3115.0,32.75,0.0
4.30942496875,0.0015192751196854955,275.803198,4.300923,4.311165,4.308605,0.010241999999999862,13.303347551640865,-2.4929445807982282,1.949006410257746e-05,271.49779400000006,-1.0151562499999995,3.5360326581215564,-64.96999999999997,-7.95,5.4,-0.445,13.350000000000001,-0.8305195309411428,-0.4014483986248153,35.779375,0.017078245838559117,2289.88,35.77,35.81,35.77,0.03999999999999915,-0.4272108843533795,1.2541088930578563,0.0006730769230769852,-29.15625,0.36596252735567775,-1866.0,-30.0,-29.0,-29.0,1.0,1.5851851851851855,-1.893458524812515,-1837.0,30.666666666666668,-23.90625,0.293784825696503,-1530.0,-24.0,-23.0,-24.0,1.0,5.7701149425287355,2.7874925905782666,-1506.0,19.5,49.453125,0.5017331074496719,3165.0,49.0,50.0,49.0,1.0,-1.9645320197044336,0.18832944617230335,3115.5,31.75,0.0
4.309565,0.001069709945021168,275.81216,4.308605,4.311165,4.309245000000001,0.0025599999999998957,-1.3719008264466819,0.4933822002178267,7.5018315018369055e-06,271.50291500000003,-0.8832812499999997,3.6061556959935395,-56.52999999999998,-7.95,5.4,-0.24,13.350000000000001,-0.8085158680372428,-0.40548404926226356,35.78,0.017457425898967142,2289.92,35.77,35.81,35.77,0.03999999999999915,-0.6666666666661936,1.154700538379559,0.0007032967032967966,-29.15625,0.36596252735567775,-1866.0,-30.0,-29.0,-29.0,1.0,1.5851851851851855,-1.893458524812515,-1837.0,29.666666666666668,-23.90625,0.293784825696503,-1530.0,-24.0,-23.0,-24.0,1.0,5.7701149425287355,2.7874925905782666,-1506.0,18.5,49.46875,0.5029673851018409,3166.0,49.0,50.0,49.0,1.0,-1.9843137254901961,0.1252448582170299,3116.5,30.75,0.0
4.309585,0.0010634236421424718,275.81344,4.308605,4.311165,4.309885,0.0025599999999998957,-1.3804843301354928,0.4575152122363726,6.534798534834894e-06,271.50419500000004,-0.7417187499999996,3.6297070390681587,-47.46999999999998,-7.95,5.4,-0.09,13.350000000000001,-0.7566421577774123,-0.4494308710641529,35.780625,0.017806271544597508,2289.96,35.77,35.81,35.77,0.03999999999999915,-0.8735919899869233,1.0613237065162335,0.0007316849816852609,-29.15625,0.36596252735567775,-1866.0,-30.0,-29.0,-29.0,1.0,1.5851851851851855,-1.893458524812515,-1837.0,28.666666666666668,-23.90625,0.293784825696503,-1530.0,-24.0,-23.0,-24.0,1.0,5.7701149425287355,2.7874925905782666,-1506.0,17.5,49.484375,0.5037064999533274,3167.0,49.0,50.0,49.0,1.0,-1.9960899315738025,0.06253053994807224,3117.5,29.75,0.0
4.309605,0.001056715486990336,275.81472,4.308605,4.311165,4.309885,0.0025599999999998957,-1.385188433985499,0.42217524071709894,5.509157509196439e-06,271.50547500000005,-0.5998437499999996,3.5990335969976845,-38.38999999999997,-7.95,5.4,0.07,13.350000000000001,-0.6587926527996091,-0.5114933193801338,35.78125,0.0181265342199855,2290.0,35.77,35.81,35.77,0.03999999999999915,-1.0531400966177327,0.9730672656001639,0.0007582417582417088,-29.15625,0.36596252735567775,-1866.0,-30.0,-29.0,-29.0,1.0,1.5851851851851855,-1.893458524812515,-1836.5,27.666666666666668,-23.90625,0.293784825696503,-1530.0,-24.0,-23.0,-24.0,1.0,5.7701149425287355,2.7874925905782666,-1506.5,32.0,49.5,0.5039526306789632,3168.0,49.0,50.0,49.5,1.0,-2.0,0.0,3118.5,28.75,0.0
4.309625,0.0010495773910532654,275.816,4.308605,4.311165,4.309885,0.0025599999999998957,-1.3859871956290726,0.38736318615166543,4.424908424909384e-06,271.50675500000006,-0.46390624999999963,3.5207465014618977,-29.689999999999976,-7.95,5.4,0.255,13.350000000000001,-0.5262763617075654,-0.5664470890947886,35.781875,0.018419704898369582,2290.04,35.77,35.81,35.77,0.03999999999999915,-1.209356725145529,0.8891812384743653,0.0007829670329668215,-29.140625,0.35038244411334485,-1865.0,-30.0,-29.0,-29.0,1.0,2.2747474747474747,-2.067546244887276,-1835.5,26.666666666666668,-23.921875,0.2704897087500433,-1531.0,-24.0,-23.0,-24.0,1.0,7.884745762711864,3.144001552593743,-1507.5,31.0,49.515625,0.5037064999533278,3169.0,49.0,50.0,50.0,1.0,-1.9960899315738025,-0.06253053994807224,3119.5,27.75,0.0
4.309645,0.001042000518599885,275.81728,4.308605,4.311165,4.309885,0.0025599999999998957,-1.3828391121946249,0.35308581029473307,3.2820512820953373e-06,271.50803500000006,-0.33578124999999964,3.408029177105244,-21.489999999999977,-7.95,5.4,0.305,13.350000000000001,-0.39331349369703084,-0.596836933388415,35.7825,0.01868705871623685,2290.08,35.77,35.81,35.77,0.03999999999999915,-1.3454545454538476,0.8090398349565373,0.0008058608058609073,-29.125,0.33333333333330994,-1864.0,-30.0,-29.0,-29.0,1.0,3.1428571428571432,-2.267786838055363,-1835.0,34.0,-23.9375,0.24397501823713455,-1532.0,-24.0,-23.0,-24.0,1.0,11.066666666666666,3.6147844564602556,-1508.5,30.0,49.53125,0.5029673851018418,3170.0,49.0,50.0,50.0,1.0,-1.9843137254901961,-0.1252448582170299,3120.0,30.428571428571427,0.0
4.309665,0.001033975223736997,275.81856,4.308605,4.311165,4.309885,0.0025599999999998957,-1.3756868700396185,0.3193565623005185,2.080586080632688e-06,271.5093150000001,-0.2131249999999996,3.2718379257957224,-13.639999999999974,-7.95,5.4,0.305,13.350000000000001,-0.2988201518227749,-0.5941033834086741,35.783125000000005,0.018929689579903184,2290.1200000000003,35.77,35.81,35.77,0.03999999999999915,-1.4640088593569867,0.732114158204421,0.0008269230769231715,-29.125,0.33333333333330994,-1864.0,-30.0,-29.0,-29.0,1.0,3.1428571428571432,-2.267786838055363,-1835.0,33.0,-23.953125,0.21304202581158782,-1533.0,-24.0,-23.0,-24.0,1.0,16.382513661202186,4.287483371536522,-1509.5,29.0,49.515625,0.5037064999533278,3169.0,49.0,50.0,50.0,1.0,-1.9960899315738025,-0.06253053994807224,3119.5,33.125,0.0
4.309685,0.0010254909787164527,275.81984,4.308605,4.311165,4.309885,0.0025599999999998957,-1.3644570470297714,0.28619661058745033,8.205128205285601e-07,271.5105950000001,-0.09249999999999961,3.1208973068617376,-5.919999999999975,-7.7,5.4,0.305,13.100000000000001,-0.26834503321583547,-0.5577221686330648,35.783750000000005,0.019148537305111832,2290.1600000000003,35.77,35.81,35.77,0.03999999999999915,-1.5670995670988594,0.6579516949605754,0.0008461538461538772,-29.125,0.33333333333330994,-1864.0,-30.0,-29.0,-29.0,1.0,3.1428571428571432,-2.267786838055363,-1835.0,32.0,-23.96875,0.1753680936030515,-1534.0,-24.0,-23.0,-24.0,1.0,27.032258064516128,5.388159060803248,-1510.0,28.0,49.5,0.5039526306789632,3168.0,49.0,50.0,49.5,1.0,-2.0,0.0,3118.5,32.125,0.0
4.309705,0.0010165362920933891,275.82112,4.308605,4.311165,4.309885,0.0025599999999998957,-1.3490597971287308,0.2536361296109103,-4.981684981461656e-07,271.51187500000003,0.02671875000000039,2.967647807089193,1.710000000000025,-6.96,5.4,0.305,12.36,-0.28394237330169814,-0.5006950343265172,35.784375000000004,0.019344409100961756,2290.2000000000003,35.77,35.81,35.77,0.03999999999999915,-1.6564156945910364,0.5861606481241377,0.0008635531135533617,-29.125,0.33333333333330994,-1864.0,-30.0,-29.0,-29.0,1.0,3.1428571428571432,-2.267786838055363,-1835.0,31.0,-23.96875,0.1753680936030515,-1534.0,-24.0,-23.0,-24.0,1.0,27.032258064516128,5.388159060803248,-1510.0,27.0,49.484375,0.5037064999533274,3167.0,49.0,50.0,49.0,1.0,-1.9960899315738025,0.06253053994807224,3117.5,31.125,0.0
